number,corrAns,thisN,thisTrialN,thisRepN,key_resp.keys,key_resp.corr,key_resp.rt,key_resp.duration,trials.thisRepN,trials.thisTrialN,trials.thisN,trials.thisIndex,thisRow.t,notes,inst.started,instructions.started,ready.started,inst.stopped,fixation.started,fix.started,fixation.stopped,sti.started,text.started,key_resp.started,sti.stopped,trials.key_resp.keys,trials.key_resp.corr,trials.key_resp.rt,trials.key_resp.duration,fix.stopped,End.started,endding.started,End.stopped,participant,session,date,expName,psychopyVersion,frameRate,expStart,
,,,,,,,,,,,,,,,0.0035010999999940395,0.010196899995207787,0.010196899995207787,19.16109209973365,,,,,,,,,,,,,,,,16,001,2025-02-12_16h10.27.063,3.2.  1.16 psyexp,2024.2.4,60.143212960936154,2025-02-12 16h10.34.393271 +0800,
3,j,0,0,0,None,0,,,0,0,0,2,19.182285299990326,,,,,,19.17618819978088,19.182285299990326,19.67150150006637,19.674692399799824,20.169792499858886,20.169792499858886,22.165693999733776,None,0,,,,,,,16,001,2025-02-12_16h10.27.063,3.2.  1.16 psyexp,2024.2.4,60.143212960936154,2025-02-12 16h10.34.393271 +0800,
9,f,1,1,0,f,1,0.6408529002219439,None,0,1,1,7,22.182752199936658,,,,,,22.165834200102836,22.182752199936658,22.664785500150174,22.667764499783516,23.163482199888676,23.163482199888676,23.813254199922085,f,1,0.6408529002219439,None,,,,,16,001,2025-02-12_16h10.27.063,3.2.  1.16 psyexp,2024.2.4,60.143212960936154,2025-02-12 16h10.34.393271 +0800,
7,f,2,2,0,f,1,0.7646238999441266,None,0,2,2,5,23.82882699975744,,,,,,23.813401099760085,23.82882699975744,24.31186780007556,24.314644699916244,24.826945399865508,24.826945399865508,25.59282279992476,f,1,0.7646238999441266,None,24.327918499708176,,,,16,001,2025-02-12_16h10.27.063,3.2.  1.16 psyexp,2024.2.4,60.143212960936154,2025-02-12 16h10.34.393271 +0800,
1,j,3,3,0,j,1,0.6393026998266578,None,0,3,3,0,25.608505200129002,,,,,,25.59296779986471,25.608505200129002,26.108065200038254,26.110922900028527,26.606498999986798,26.606498999986798,27.25593370012939,j,1,0.6393026998266578,None,,,,,16,001,2025-02-12_16h10.27.063,3.2.  1.16 psyexp,2024.2.4,60.143212960936154,2025-02-12 16h10.34.393271 +0800,
8,f,4,4,0,f,1,0.6310336999595165,None,0,4,4,6,27.271274500060827,,,,,,27.256077900063246,27.271274500060827,27.754519099835306,27.75742489984259,28.269526099786162,28.269526099786162,28.90276570012793,f,1,0.6310336999595165,None,27.770359199959785,,,,16,001,2025-02-12_16h10.27.063,3.2.  1.16 psyexp,2024.2.4,60.143212960936154,2025-02-12 16h10.34.393271 +0800,
6,f,5,5,0,f,1,0.7278879997320473,None,0,5,5,4,28.918045700062066,,,,,,28.90293199988082,28.918045700062066,29.417178200092167,29.420227199792862,29.916189800016582,29.916189800016582,30.64878879999742,f,1,0.7278879997320473,None,,,,,16,001,2025-02-12_16h10.27.063,3.2.  1.16 psyexp,2024.2.4,60.143212960936154,2025-02-12 16h10.34.393271 +0800,
2,j,6,6,0,j,1,0.5368379997089505,None,0,6,6,1,30.66427579987794,,,,,,30.6489328998141,30.66427579987794,31.16323669999838,31.16615299973637,31.662086499854922,31.662086499854922,32.212472499813884,j,1,0.5368379997089505,None,,,,,16,001,2025-02-12_16h10.27.063,3.2.  1.16 psyexp,2024.2.4,60.143212960936154,2025-02-12 16h10.34.393271 +0800,
4,j,7,7,0,j,1,0.7616782998666167,None,0,7,7,3,32.227773500140756,,,,,,32.21260660002008,32.227773500140756,32.71071239979938,32.71362689975649,33.225724699907005,33.225724699907005,33.99154479987919,j,1,0.7616782998666167,None,32.72653400013223,,,,16,001,2025-02-12_16h10.27.063,3.2.  1.16 psyexp,2024.2.4,60.143212960936154,2025-02-12 16h10.34.393271 +0800,
7,f,8,0,1,f,1,0.5975814000703394,None,1,0,8,5,34.007525799795985,,,,,,33.991684400010854,34.007525799795985,34.50648459978402,34.5080038998276,35.0051255999133,35.0051255999133,35.6057997001335,f,1,0.5975814000703394,None,,,,,16,001,2025-02-12_16h10.27.063,3.2.  1.16 psyexp,2024.2.4,60.143212960936154,2025-02-12 16h10.34.393271 +0800,
9,f,9,1,1,f,1,0.7574140997603536,None,1,1,9,7,35.62094769999385,,,,,,35.605936099775136,35.62094769999385,36.11961239995435,36.120928099844605,36.61826079990715,36.61826079990715,37.38444689987227,f,1,0.7574140997603536,None,,,,,16,001,2025-02-12_16h10.27.063,3.2.  1.16 psyexp,2024.2.4,60.143212960936154,2025-02-12 16h10.34.393271 +0800,
4,j,10,2,1,j,1,0.6686108000576496,None,1,2,10,3,37.4000383997336,,,,,,37.38458119984716,37.4000383997336,37.88310470012948,37.88455979991704,38.398074499797076,38.398074499797076,39.080538999754936,j,1,0.6686108000576496,None,37.89897290011868,,,,16,001,2025-02-12_16h10.27.063,3.2.  1.16 psyexp,2024.2.4,60.143212960936154,2025-02-12 16h10.34.393271 +0800,
8,f,11,3,1,f,1,0.6279269000515342,None,1,3,11,6,39.096378500107676,,,,,,39.08069209987298,39.096378500107676,39.579584799706936,39.580903799738735,40.094362100120634,40.094362100120634,40.72728849994019,f,1,0.6279269000515342,None,39.59575220011175,,,,16,001,2025-02-12_16h10.27.063,3.2.  1.16 psyexp,2024.2.4,60.143212960936154,2025-02-12 16h10.34.393271 +0800,
1,j,12,4,1,j,1,0.5776710999198258,None,1,4,12,0,40.74300119979307,,,,,,40.727448400110006,40.74300119979307,41.242049399763346,41.24341899994761,41.74080519983545,41.74080519983545,42.32385980011895,j,1,0.5776710999198258,None,,,,,16,001,2025-02-12_16h10.27.063,3.2.  1.16 psyexp,2024.2.4,60.143212960936154,2025-02-12 16h10.34.393271 +0800,
6,f,13,5,1,f,1,0.6313376999460161,None,1,5,13,4,42.3391486001201,,,,,,42.32400339981541,42.3391486001201,42.82259290013462,42.82421529991552,43.33731900015846,43.33731900015846,43.97039269981906,f,1,0.6313376999460161,None,42.83856990002096,,,,16,001,2025-02-12_16h10.27.063,3.2.  1.16 psyexp,2024.2.4,60.143212960936154,2025-02-12 16h10.34.393271 +0800,
3,j,14,6,1,j,1,0.6686983001418412,None,1,6,14,2,43.98584259999916,,,,,,43.970545900054276,43.98584259999916,44.468858799897134,44.470275399740785,44.98426349973306,44.98426349973306,45.66629379987717,j,1,0.6686983001418412,None,44.48483770014718,,,,16,001,2025-02-12_16h10.27.063,3.2.  1.16 psyexp,2024.2.4,60.143212960936154,2025-02-12 16h10.34.393271 +0800,
2,j,15,7,1,j,1,0.6533920997753739,None,1,7,15,1,45.68268259987235,,,,,,45.666436600033194,45.68268259987235,46.181864799931645,46.18332690000534,46.68054859992117,46.68054859992117,47.34640979999676,j,1,0.6533920997753739,None,,,,,16,001,2025-02-12_16h10.27.063,3.2.  1.16 psyexp,2024.2.4,60.143212960936154,2025-02-12 16h10.34.393271 +0800,
9,f,16,0,2,f,1,1.002052600029856,None,2,0,16,7,47.3620293000713,,,,,,47.346553300041705,47.3620293000713,47.86114089982584,47.86252520000562,48.360141300130635,48.360141300130635,49.3756800997071,f,1,1.002052600029856,None,,,,,16,001,2025-02-12_16h10.27.063,3.2.  1.16 psyexp,2024.2.4,60.143212960936154,2025-02-12 16h10.34.393271 +0800,
2,j,17,1,2,j,1,0.6111491001211107,None,2,1,17,1,49.390923799946904,,,,,,49.375892399810255,49.390923799946904,49.873921799939126,49.875353099778295,50.388908199965954,50.388908199965954,51.00561170000583,j,1,0.6111491001211107,None,49.88998810015619,,,,16,001,2025-02-12_16h10.27.063,3.2.  1.16 psyexp,2024.2.4,60.143212960936154,2025-02-12 16h10.34.393271 +0800,
1,j,18,2,2,j,1,0.5728797996416688,None,2,2,18,0,51.02088569989428,,,,,,51.005786600057036,51.02088569989428,51.503916800022125,51.505253799725324,52.018878399860114,52.018878399860114,52.60171029996127,j,1,0.5728797996416688,None,51.51987669989467,,,,16,001,2025-02-12_16h10.27.063,3.2.  1.16 psyexp,2024.2.4,60.143212960936154,2025-02-12 16h10.34.393271 +0800,
7,f,19,3,2,f,1,1.0581894000060856,None,2,3,19,5,52.61760570015758,,,,,,52.60185390012339,52.61760570015758,53.10097960010171,53.10241679986939,53.61555380001664,53.61555380001664,54.68044460006058,f,1,1.0581894000060856,None,53.116601899731904,,,,16,001,2025-02-12_16h10.27.063,3.2.  1.16 psyexp,2024.2.4,60.143212960936154,2025-02-12 16h10.34.393271 +0800,
8,f,20,4,2,f,1,0.587763600051403,None,2,4,20,6,54.69625459983945,,,,,,54.68058139970526,54.69625459983945,55.179245399776846,55.18057919992134,55.69441600004211,55.69441600004211,56.294119999744,f,1,0.587763600051403,None,55.19557349989191,,,,16,001,2025-02-12_16h10.27.063,3.2.  1.16 psyexp,2024.2.4,60.143212960936154,2025-02-12 16h10.34.393271 +0800,
6,f,21,5,2,f,1,0.6199606000445783,None,2,5,21,4,56.30951749999076,,,,,,56.294273799750954,56.30951749999076,56.79247949970886,56.794105200096965,57.307743799872696,57.307743799872696,57.94095759978518,f,1,0.6199606000445783,None,56.808406699914485,,,,16,001,2025-02-12_16h10.27.063,3.2.  1.16 psyexp,2024.2.4,60.143212960936154,2025-02-12 16h10.34.393271 +0800,
3,j,22,6,2,j,1,0.43941659992560744,None,2,6,22,2,57.956222999840975,,,,,,57.941123500000685,57.956222999840975,58.43917990010232,58.44065249990672,58.954298299737275,58.954298299737275,59.404099400155246,j,1,0.43941659992560744,None,58.45503399986774,,,,16,001,2025-02-12_16h10.27.063,3.2.  1.16 psyexp,2024.2.4,60.143212960936154,2025-02-12 16h10.34.393271 +0800,
4,j,23,7,2,j,1,0.4239226998761296,None,2,7,23,3,59.41944839991629,,,,,,59.404236500151455,59.41944839991629,59.90239149983972,59.9037826997228,60.41737490007654,60.41737490007654,60.85109640005976,j,1,0.4239226998761296,None,59.91857609990984,,,,16,001,2025-02-12_16h10.27.063,3.2.  1.16 psyexp,2024.2.4,60.143212960936154,2025-02-12 16h10.34.393271 +0800,
7,f,24,0,3,f,1,0.426564899738878,None,3,0,24,5,60.86630260013044,,,,,,60.851243699900806,60.86630260013044,61.34933499991894,61.35073419986293,61.86448849970475,61.86448849970475,62.297890400048345,f,1,0.426564899738878,None,61.36568959988654,,,,16,001,2025-02-12_16h10.27.063,3.2.  1.16 psyexp,2024.2.4,60.143212960936154,2025-02-12 16h10.34.393271 +0800,
6,f,25,1,3,f,1,0.4590543997474015,None,3,1,25,4,62.313472900073975,,,,,,62.29805049998686,62.313472900073975,62.797326100058854,62.79883039975539,63.31186980009079,63.31186980009079,63.77781709982082,f,1,0.4590543997474015,None,62.81229740008712,,,,16,001,2025-02-12_16h10.27.063,3.2.  1.16 psyexp,2024.2.4,60.143212960936154,2025-02-12 16h10.34.393271 +0800,
2,j,26,2,3,j,1,0.45809860015287995,None,3,2,26,1,63.79371380014345,,,,,,63.777965399902314,63.79371380014345,64.29269709996879,64.29407149972394,64.79178019985557,64.79178019985557,65.2582418997772,j,1,0.45809860015287995,None,,,,,16,001,2025-02-12_16h10.27.063,3.2.  1.16 psyexp,2024.2.4,60.143212960936154,2025-02-12 16h10.34.393271 +0800,
4,j,27,3,3,j,1,0.5411439999006689,None,3,3,27,3,65.27359669981524,,,,,,65.2583849998191,65.27359669981524,65.75696490006521,65.75844080001116,66.27157719992101,66.27157719992101,66.8216352998279,j,1,0.5411439999006689,None,65.7730140001513,,,,16,001,2025-02-12_16h10.27.063,3.2.  1.16 psyexp,2024.2.4,60.143212960936154,2025-02-12 16h10.34.393271 +0800,
8,f,28,4,3,f,1,0.5276992996223271,None,3,4,28,6,66.83707749983296,,,,,,66.82177980011329,66.83707749983296,67.33620660007,67.33758950000629,67.83512029983103,67.83512029983103,68.36826619971544,f,1,0.5276992996223271,None,,,,,16,001,2025-02-12_16h10.27.063,3.2.  1.16 psyexp,2024.2.4,60.143212960936154,2025-02-12 16h10.34.393271 +0800,
9,f,29,5,3,f,1,0.6061297999694943,None,3,5,29,7,68.38388259988278,,,,,,68.36841550003737,68.38388259988278,68.8670517001301,68.8687734999694,69.38196429982781,69.38196429982781,69.99824190000072,f,1,0.6061297999694943,None,68.88283459981903,,,,16,001,2025-02-12_16h10.27.063,3.2.  1.16 psyexp,2024.2.4,60.143212960936154,2025-02-12 16h10.34.393271 +0800,
1,j,30,6,3,j,1,0.5421871999278665,None,3,6,30,0,70.01381210004911,,,,,,69.99839060008526,70.01381210004911,70.51299499999732,70.51438800012693,71.01185899972916,71.01185899972916,71.56178870005533,j,1,0.5421871999278665,None,,,,,16,001,2025-02-12_16h10.27.063,3.2.  1.16 psyexp,2024.2.4,60.143212960936154,2025-02-12 16h10.34.393271 +0800,
3,j,31,7,3,j,1,0.5471326000988483,None,3,7,31,2,71.5772997001186,,,,,,71.56192780006677,71.5772997001186,72.06022719992325,72.06164739979431,72.57521099969745,72.57521099969745,73.12535380013287,j,1,0.5471326000988483,None,72.07595650013536,,,,16,001,2025-02-12_16h10.27.063,3.2.  1.16 psyexp,2024.2.4,60.143212960936154,2025-02-12 16h10.34.393271 +0800,
4,j,32,0,4,j,1,0.8432859000749886,None,4,0,32,3,73.14054569974542,,,,,,73.12550979992375,73.14054569974542,73.62567179976031,73.62792469980195,74.13929749978706,74.13929749978706,74.98748969985172,j,1,0.8432859000749886,None,73.6397687997669,,,,16,001,2025-02-12_16h10.27.063,3.2.  1.16 psyexp,2024.2.4,60.143212960936154,2025-02-12 16h10.34.393271 +0800,
8,f,33,1,4,f,1,0.5311568998731673,None,4,1,33,6,75.003047300037,,,,,,74.98764410009608,75.003047300037,75.48635899974033,75.48767550010234,76.00135219981894,76.00135219981894,76.5343499998562,f,1,0.5311568998731673,None,75.50282969977707,,,,16,001,2025-02-12_16h10.27.063,3.2.  1.16 psyexp,2024.2.4,60.143212960936154,2025-02-12 16h10.34.393271 +0800,
2,j,34,2,4,j,1,0.5840233997441828,None,4,2,34,1,76.54975949972868,,,,,,76.53450440010056,76.54975949972868,77.04880450014025,77.05024580005556,77.54802280012518,77.54802280012518,78.14751709997654,j,1,0.5840233997441828,None,,,,,16,001,2025-02-12_16h10.27.063,3.2.  1.16 psyexp,2024.2.4,60.143212960936154,2025-02-12 16h10.34.393271 +0800,
7,f,35,3,4,f,1,0.5965805002488196,None,4,3,35,5,78.16320669976994,,,,,,78.1476523000747,78.16320669976994,78.64608229976147,78.64748399984092,79.16140899993479,79.16140899993479,79.76079190010205,f,1,0.5965805002488196,None,78.66184399975464,,,,16,001,2025-02-12_16h10.27.063,3.2.  1.16 psyexp,2024.2.4,60.143212960936154,2025-02-12 16h10.34.393271 +0800,
9,f,36,4,4,f,1,0.5358636002056301,None,4,4,36,7,79.77619819995016,,,,,,79.7609346001409,79.77619819995016,80.25909500010312,80.26044959994033,80.77441779989749,80.77441779989749,81.32389999972656,f,1,0.5358636002056301,None,80.27519139973447,,,,16,001,2025-02-12_16h10.27.063,3.2.  1.16 psyexp,2024.2.4,60.143212960936154,2025-02-12 16h10.34.393271 +0800,
6,f,37,5,4,f,1,0.6216217000037432,None,4,5,37,4,81.33976119989529,,,,,,81.32406170014292,81.33976119989529,81.8387898998335,81.84069849969819,82.33745800005272,82.33745800005272,82.97051890008152,f,1,0.6216217000037432,None,,,,,16,001,2025-02-12_16h10.27.063,3.2.  1.16 psyexp,2024.2.4,60.143212960936154,2025-02-12 16h10.34.393271 +0800,
3,j,38,6,4,j,1,0.632347600068897,None,4,6,38,2,82.98640180006623,,,,,,82.97065200004727,82.98640180006623,83.4852395998314,83.48667000001296,83.98433549981564,83.98433549981564,84.6337942997925,j,1,0.632347600068897,None,,,,,16,001,2025-02-12_16h10.27.063,3.2.  1.16 psyexp,2024.2.4,60.143212960936154,2025-02-12 16h10.34.393271 +0800,
1,j,39,7,4,j,1,0.4986783000640571,None,4,7,39,0,84.64942289981991,,,,,,84.63394769979641,84.64942289981991,85.14829810010269,85.14976930012926,85.64723700005561,85.64723700005561,86.14816850004718,j,1,0.4986783000640571,None,,,,,16,001,2025-02-12_16h10.27.063,3.2.  1.16 psyexp,2024.2.4,60.143212960936154,2025-02-12 16h10.34.393271 +0800,
4,j,40,0,5,j,1,0.5161071000620723,None,5,0,40,3,86.16290199989453,,,,,,86.1483959001489,86.16290199989453,86.66186850005761,86.66335160005838,87.1605273000896,87.1605273000896,87.67815440008417,j,1,0.5161071000620723,None,,,,,16,001,2025-02-12_16h10.27.063,3.2.  1.16 psyexp,2024.2.4,60.143212960936154,2025-02-12 16h10.34.393271 +0800,
6,f,41,1,5,f,1,0.5511329998262227,None,5,1,41,4,87.69308019988239,,,,,,87.67829750012606,87.69308019988239,88.17628949973732,88.17769189970568,88.69056640006602,88.69056640006602,89.25727909989655,f,1,0.5511329998262227,None,88.19205239973962,,,,16,001,2025-02-12_16h10.27.063,3.2.  1.16 psyexp,2024.2.4,60.143212960936154,2025-02-12 16h10.34.393271 +0800,
8,f,42,2,5,f,1,0.5111336996778846,None,5,2,42,6,89.27282269997522,,,,,,89.2574299001135,89.27282269997522,89.77204550011083,89.773430199828,90.27075559971854,90.27075559971854,90.7872645999305,f,1,0.5111336996778846,None,,,,,16,001,2025-02-12_16h10.27.063,3.2.  1.16 psyexp,2024.2.4,60.143212960936154,2025-02-12 16h10.34.393271 +0800,
7,f,43,3,5,f,1,0.5304425000213087,None,5,3,43,5,90.80301050003618,,,,,,90.78741970006377,90.80301050003618,91.30191589985043,91.3033003997989,91.80110159981996,91.80110159981996,92.3342864997685,f,1,0.5304425000213087,None,,,,,16,001,2025-02-12_16h10.27.063,3.2.  1.16 psyexp,2024.2.4,60.143212960936154,2025-02-12 16h10.34.393271 +0800,
3,j,44,4,5,j,1,0.5244962996803224,None,5,4,44,2,92.34953599981964,,,,,,92.33443829976022,92.34953599981964,92.8333247997798,92.83472980000079,93.34762120014057,93.34762120014057,93.88056570012122,j,1,0.5244962996803224,None,92.8493924997747,,,,16,001,2025-02-12_16h10.27.063,3.2.  1.16 psyexp,2024.2.4,60.143212960936154,2025-02-12 16h10.34.393271 +0800,
9,f,45,5,5,f,1,0.6077896999195218,None,5,5,45,7,93.89608079986647,,,,,,93.88070489978418,93.89608079986647,94.39524680003524,94.39689299976453,94.89505930012092,94.89505930012092,95.51192930014804,f,1,0.6077896999195218,None,,,,,16,001,2025-02-12_16h10.27.063,3.2.  1.16 psyexp,2024.2.4,60.143212960936154,2025-02-12 16h10.34.393271 +0800,
2,j,46,6,5,j,1,0.6081869998015463,None,5,6,46,1,95.5267154998146,,,,,,95.51209900015965,95.5267154998146,96.02502299984917,96.02638689987361,96.52446800004691,96.52446800004691,97.1406383998692,j,1,0.6081869998015463,None,,,,,16,001,2025-02-12_16h10.27.063,3.2.  1.16 psyexp,2024.2.4,60.143212960936154,2025-02-12 16h10.34.393271 +0800,
1,j,47,7,5,j,1,0.5446432000026107,None,5,7,47,0,97.15673749987036,,,,,,97.14076999993995,97.15673749987036,97.65505849989131,97.65640959981829,98.15405960008502,98.15405960008502,98.70349430013448,j,1,0.5446432000026107,None,,,,,16,001,2025-02-12_16h10.27.063,3.2.  1.16 psyexp,2024.2.4,60.143212960936154,2025-02-12 16h10.34.393271 +0800,
1,j,48,0,6,j,1,0.4692941000685096,None,6,0,48,0,98.71949160005897,,,,,,98.70364239998162,98.71949160005897,99.20285619981587,99.20416860003024,99.71730689983815,99.71730689983815,100.20060229999945,j,1,0.4692941000685096,None,99.21939900005236,,,,16,001,2025-02-12_16h10.27.063,3.2.  1.16 psyexp,2024.2.4,60.143212960936154,2025-02-12 16h10.34.393271 +0800,
6,f,49,1,6,f,1,0.6438202001154423,None,6,1,49,4,100.216456099879,,,,,,100.20079750008881,100.216456099879,100.69935970008373,100.70075409999117,101.21449399972335,101.21449399972335,101.86353380000219,f,1,0.6438202001154423,None,100.71549420012161,,,,16,001,2025-02-12_16h10.27.063,3.2.  1.16 psyexp,2024.2.4,60.143212960936154,2025-02-12 16h10.34.393271 +0800,
8,f,50,2,6,f,1,0.4811428999528289,None,6,2,50,6,101.87931110011414,,,,,,101.86367500014603,101.87931110011414,102.37863679975271,102.38003919972107,102.87739520007744,102.87739520007744,103.3610017998144,f,1,0.4811428999528289,None,,,,,16,001,2025-02-12_16h10.27.063,3.2.  1.16 psyexp,2024.2.4,60.143212960936154,2025-02-12 16h10.34.393271 +0800,
9,f,51,3,6,f,1,0.4991892003454268,None,6,3,51,7,103.3786212997511,,,,,,103.36113870004192,103.3786212997511,103.87546249991283,103.8768780999817,104.37959170015529,104.37959170015529,104.89121139980853,f,1,0.4991892003454268,None,,,,,16,001,2025-02-12_16h10.27.063,3.2.  1.16 psyexp,2024.2.4,60.143212960936154,2025-02-12 16h10.34.393271 +0800,
3,j,52,4,6,j,1,0.5496728997677565,None,6,4,52,2,104.90656609972939,,,,,,104.8914109999314,104.90656609972939,105.40547059988603,105.40689799981192,105.90405809972435,105.90405809972435,106.47157400008291,j,1,0.5496728997677565,None,,,,,16,001,2025-02-12_16h10.27.063,3.2.  1.16 psyexp,2024.2.4,60.143212960936154,2025-02-12 16h10.34.393271 +0800,
4,j,53,5,6,j,1,0.49006490036845207,None,6,5,53,3,106.48627059999853,,,,,,106.47172559984028,106.48627059999853,106.98516839975491,106.98682829970494,107.48422629991546,107.48422629991546,107.9842349998653,j,1,0.49006490036845207,None,,,,,16,001,2025-02-12_16h10.27.063,3.2.  1.16 psyexp,2024.2.4,60.143212960936154,2025-02-12 16h10.34.393271 +0800,
2,j,54,6,6,j,1,0.408135499805212,None,6,6,54,1,107.99984839977697,,,,,,107.98437969991937,107.99984839977697,108.48344240011647,108.48480620002374,108.99811779987067,108.99811779987067,109.4141389997676,j,1,0.408135499805212,None,108.49864410003647,,,,16,001,2025-02-12_16h10.27.063,3.2.  1.16 psyexp,2024.2.4,60.143212960936154,2025-02-12 16h10.34.393271 +0800,
7,f,55,7,6,f,1,0.6328119998797774,None,6,7,55,5,109.43327810009941,,,,,,109.41427560010925,109.43327810009941,109.93060520011932,109.93210690002888,110.42764459969476,110.42764459969476,111.07815479999408,f,1,0.6328119998797774,None,,,,,16,001,2025-02-12_16h10.27.063,3.2.  1.16 psyexp,2024.2.4,60.143212960936154,2025-02-12 16h10.34.393271 +0800,
8,f,56,0,7,f,1,0.48286550026386976,None,7,0,56,6,111.09338549990207,,,,,,111.07828449970111,111.09338549990207,111.59209319995716,111.59346449980512,112.09136530011892,112.09136530011892,112.57548809982836,f,1,0.48286550026386976,None,,,,,16,001,2025-02-12_16h10.27.063,3.2.  1.16 psyexp,2024.2.4,60.143212960936154,2025-02-12 16h10.34.393271 +0800,
6,f,57,1,7,f,1,0.41942490031942725,None,7,1,57,4,112.58984739985317,,,,,,112.57565480004996,112.58984739985317,113.08885699976236,113.0902089998126,113.58818469988182,113.58818469988182,114.02133349981159,f,1,0.41942490031942725,None,,,,,16,001,2025-02-12_16h10.27.063,3.2.  1.16 psyexp,2024.2.4,60.143212960936154,2025-02-12 16h10.34.393271 +0800,
3,j,58,2,7,j,1,0.4860086999833584,None,7,2,58,2,114.03692740015686,,,,,,114.0214728997089,114.03692740015686,114.53667049994692,114.53811670001596,115.03681090008467,115.03681090008467,115.54077860014513,j,1,0.4860086999833584,None,,,,,16,001,2025-02-12_16h10.27.063,3.2.  1.16 psyexp,2024.2.4,60.143212960936154,2025-02-12 16h10.34.393271 +0800,
2,j,59,3,7,j,1,0.4070592001080513,None,7,3,59,1,115.55056539969519,,,,,,115.54091059975326,115.55056539969519,116.05010200012475,116.05164900003001,116.54965650010854,116.54965650010854,116.96536309970543,j,1,0.4070592001080513,None,,,,,16,001,2025-02-12_16h10.27.063,3.2.  1.16 psyexp,2024.2.4,60.143212960936154,2025-02-12 16h10.34.393271 +0800,
4,j,60,4,7,j,1,0.4127568998374045,None,7,4,60,3,116.98132070014253,,,,,,116.96550610009581,116.98132070014253,117.46435059979558,117.46589150000364,117.9782857997343,117.9782857997343,118.39556849980727,j,1,0.4127568998374045,None,117.48020350001752,,,,16,001,2025-02-12_16h10.27.063,3.2.  1.16 psyexp,2024.2.4,60.143212960936154,2025-02-12 16h10.34.393271 +0800,
7,f,61,5,7,f,1,0.5491905002854764,None,7,5,61,5,118.41141270007938,,,,,,118.39572170004249,118.41141270007938,118.89446550002322,118.89650289993733,119.40895720012486,119.40895720012486,119.97501289984211,f,1,0.5491905002854764,None,118.90980859985575,,,,16,001,2025-02-12_16h10.27.063,3.2.  1.16 psyexp,2024.2.4,60.143212960936154,2025-02-12 16h10.34.393271 +0800,
1,j,62,6,7,j,1,0.5755651001818478,None,7,6,62,0,119.99091619998217,,,,,,119.97515359986573,119.99091619998217,120.48986369976774,120.4912918000482,120.98859159974381,120.98859159974381,121.57170980004594,j,1,0.5755651001818478,None,,,,,16,001,2025-02-12_16h10.27.063,3.2.  1.16 psyexp,2024.2.4,60.143212960936154,2025-02-12 16h10.34.393271 +0800,
9,f,63,7,7,f,1,0.4762520999647677,None,7,7,63,7,121.58758669998497,,,,,,121.57186409970745,121.58758669998497,122.0863771000877,122.08776099979877,122.58568549994379,122.58568549994379,123.06847519986331,f,1,0.4762520999647677,None,,,,,16,001,2025-02-12_16h10.27.063,3.2.  1.16 psyexp,2024.2.4,60.143212960936154,2025-02-12 16h10.34.393271 +0800,
8,f,64,0,8,f,1,0.5477338000200689,None,8,0,64,6,123.08659629989415,,,,,,123.06861139973626,123.08659629989415,123.58305529970676,123.58443889999762,124.08192309970036,124.08192309970036,124.63225599983707,f,1,0.5477338000200689,None,,,,,16,001,2025-02-12_16h10.27.063,3.2.  1.16 psyexp,2024.2.4,60.143212960936154,2025-02-12 16h10.34.393271 +0800,
7,f,65,1,8,f,1,0.7087587001733482,None,8,1,65,5,124.64753599977121,,,,,,124.63241089973599,124.64753599977121,125.13041790015996,125.13190179970115,125.64541869983077,125.64541869983077,126.36133799981326,f,1,0.7087587001733482,None,125.14640930015594,,,,16,001,2025-02-12_16h10.27.063,3.2.  1.16 psyexp,2024.2.4,60.143212960936154,2025-02-12 16h10.34.393271 +0800,
9,f,66,2,8,f,1,0.47106750030070543,None,8,2,66,7,126.37711199978366,,,,,,126.36147539969534,126.37711199978366,126.87623600009829,126.87772209988907,127.37515249988064,127.37515249988064,127.85812600003555,f,1,0.47106750030070543,None,,,,,16,001,2025-02-12_16h10.27.063,3.2.  1.16 psyexp,2024.2.4,60.143212960936154,2025-02-12 16h10.34.393271 +0800,
1,j,67,3,8,j,1,0.5109574003145099,None,8,3,67,0,127.87394220009446,,,,,,127.85826670005918,127.87394220009446,128.37291690008715,128.37429169984534,128.8720053001307,128.8720053001307,129.38842849992216,j,1,0.5109574003145099,None,,,,,16,001,2025-02-12_16h10.27.063,3.2.  1.16 psyexp,2024.2.4,60.143212960936154,2025-02-12 16h10.34.393271 +0800,
6,f,68,4,8,f,1,0.47901559993624687,None,8,4,68,4,129.40383099997416,,,,,,129.38856709981337,129.40383099997416,129.90401940001175,129.90589440008625,130.4021143000573,130.4021143000573,130.88485720008612,f,1,0.47901559993624687,None,,,,,16,001,2025-02-12_16h10.27.063,3.2.  1.16 psyexp,2024.2.4,60.143212960936154,2025-02-12 16h10.34.393271 +0800,
4,j,69,5,8,j,1,0.47704089991748333,None,8,5,69,3,130.90061999997124,,,,,,130.88502619974315,130.90061999997124,131.3997951000929,131.45338329998776,131.89877820014954,131.89877820014954,132.38174350000918,j,1,0.47704089991748333,None,,,,,16,001,2025-02-12_16h10.27.063,3.2.  1.16 psyexp,2024.2.4,60.143212960936154,2025-02-12 16h10.34.393271 +0800,
3,j,70,6,8,j,1,0.6242097998037934,None,8,6,70,2,132.39767199987546,,,,,,132.38190170004964,132.39767199987546,132.88058889983222,132.88203909993172,133.39538520015776,133.39538520015776,134.028387399856,j,1,0.6242097998037934,None,132.89650799985975,,,,16,001,2025-02-12_16h10.27.063,3.2.  1.16 psyexp,2024.2.4,60.143212960936154,2025-02-12 16h10.34.393271 +0800,
2,j,71,7,8,j,1,0.4680924001149833,None,8,7,71,1,134.04423080012202,,,,,,134.0285342000425,134.04423080012202,134.54323269985616,134.54472080012783,135.04207629989833,135.04207629989833,135.52494359994307,j,1,0.4680924001149833,None,,,,,16,001,2025-02-12_16h10.27.063,3.2.  1.16 psyexp,2024.2.4,60.143212960936154,2025-02-12 16h10.34.393271 +0800,
7,f,72,0,9,f,1,0.6626439997926354,None,9,0,72,5,135.54127439996228,,,,,,135.5250967000611,135.54127439996228,136.04006379982457,136.0415834998712,136.5387710998766,136.5387710998766,137.20549809979275,f,1,0.6626439997926354,None,,,,,16,001,2025-02-12_16h10.27.063,3.2.  1.16 psyexp,2024.2.4,60.143212960936154,2025-02-12 16h10.34.393271 +0800,
2,j,73,1,9,j,1,0.5482618999667466,None,9,1,73,1,137.22058370010927,,,,,,137.2056438997388,137.22058370010927,137.7036788999103,137.70507000014186,138.2185645001009,138.2185645001009,138.76831169985235,j,1,0.5482618999667466,None,137.71953130001202,,,,16,001,2025-02-12_16h10.27.063,3.2.  1.16 psyexp,2024.2.4,60.143212960936154,2025-02-12 16h10.34.393271 +0800,
9,f,74,2,9,f,1,0.5545172998681664,None,9,2,74,7,138.78433150006458,,,,,,138.7684706998989,138.78433150006458,139.283219399862,139.2845413000323,139.78184930002317,139.78184930002317,140.34835499990731,f,1,0.5545172998681664,None,,,,,16,001,2025-02-12_16h10.27.063,3.2.  1.16 psyexp,2024.2.4,60.143212960936154,2025-02-12 16h10.34.393271 +0800,
8,f,75,3,9,f,1,0.5145787997171283,None,9,3,75,6,140.36386549985036,,,,,,140.3484966000542,140.36386549985036,140.84690209990367,140.8486568997614,141.36189709976315,141.36189709976315,141.87852649996057,f,1,0.5145787997171283,None,140.86288339970633,,,,16,001,2025-02-12_16h10.27.063,3.2.  1.16 psyexp,2024.2.4,60.143212960936154,2025-02-12 16h10.34.393271 +0800,
3,j,76,4,9,j,1,0.5121544003486633,None,9,4,76,2,141.89408570015803,,,,,,141.87869499996305,141.89408570015803,142.39366849977523,142.39515409991145,142.89202729985118,142.89202729985118,143.4084801999852,j,1,0.5121544003486633,None,,,,,16,001,2025-02-12_16h10.27.063,3.2.  1.16 psyexp,2024.2.4,60.143212960936154,2025-02-12 16h10.34.393271 +0800,
6,f,77,5,9,f,1,0.5187173001468182,None,9,5,77,4,143.4243263998069,,,,,,143.4086833000183,143.4243263998069,143.90745820011944,143.90879009990022,144.42202299972996,144.42202299972996,144.95534359989688,f,1,0.5187173001468182,None,143.92317599989474,,,,16,001,2025-02-12_16h10.27.063,3.2.  1.16 psyexp,2024.2.4,60.143212960936154,2025-02-12 16h10.34.393271 +0800,
1,j,78,6,9,j,1,0.523800200317055,None,9,6,78,0,144.97069490002468,,,,,,144.95549289975315,144.97069490002468,145.45377699984238,145.4551455997862,145.96887499978766,145.96887499978766,146.50159509992227,j,1,0.523800200317055,None,145.46984279993922,,,,16,001,2025-02-12_16h10.27.063,3.2.  1.16 psyexp,2024.2.4,60.143212960936154,2025-02-12 16h10.34.393271 +0800,
4,j,79,7,9,j,1,0.5151871000416577,None,9,7,79,3,146.5173948998563,,,,,,146.5017371000722,146.5173948998563,147.00063839973882,147.00268370006233,147.5151765998453,147.5151765998453,148.03259650012478,j,1,0.5151871000416577,None,147.01665329979733,,,,16,001,2025-02-12_16h10.27.063,3.2.  1.16 psyexp,2024.2.4,60.143212960936154,2025-02-12 16h10.34.393271 +0800,
2,j,80,0,10,j,1,0.6008120998740196,None,10,0,80,1,148.0477439998649,,,,,,148.032735100016,148.0477439998649,148.54639879986644,148.54777179984376,149.04542949981987,149.04542949981987,149.661543100141,j,1,0.6008120998740196,None,,,,,16,001,2025-02-12_16h10.27.063,3.2.  1.16 psyexp,2024.2.4,60.143212960936154,2025-02-12 16h10.34.393271 +0800,
7,f,81,1,10,f,1,0.6643638000823557,None,10,1,81,5,149.67740730009973,,,,,,149.66171849984676,149.67740730009973,150.16062540002167,150.16217509983107,150.67539109988138,150.67539109988138,151.34166939975694,f,1,0.6643638000823557,None,150.17643130011857,,,,16,001,2025-02-12_16h10.27.063,3.2.  1.16 psyexp,2024.2.4,60.143212960936154,2025-02-12 16h10.34.393271 +0800,
4,j,82,2,10,j,1,0.5970388003624976,None,10,2,82,3,151.35741219995543,,,,,,151.3418104001321,151.35741219995543,151.8560029999353,151.85739149991423,152.3550472999923,152.3550472999923,152.9551610001363,j,1,0.5970388003624976,None,,,,,16,001,2025-02-12_16h10.27.063,3.2.  1.16 psyexp,2024.2.4,60.143212960936154,2025-02-12 16h10.34.393271 +0800,
6,f,83,3,10,f,1,0.840998999774456,None,10,3,83,4,152.9704049997963,,,,,,152.95529419975355,152.9704049997963,153.46948359999806,153.47126189991832,153.96848119981587,153.96848119981587,154.8171800998971,f,1,0.840998999774456,None,,,,,16,001,2025-02-12_16h10.27.063,3.2.  1.16 psyexp,2024.2.4,60.143212960936154,2025-02-12 16h10.34.393271 +0800,
9,f,84,4,10,f,1,0.564890000037849,None,10,4,84,7,154.83334829984233,,,,,,154.8173201000318,154.83334829984233,155.3322385000065,155.33360480004922,155.83095629978925,155.83095629978925,156.39766549970955,f,1,0.564890000037849,None,,,,,16,001,2025-02-12_16h10.27.063,3.2.  1.16 psyexp,2024.2.4,60.143212960936154,2025-02-12 16h10.34.393271 +0800,
1,j,85,5,10,j,1,0.5246677999384701,None,10,5,85,0,156.41312499996275,,,,,,156.39782029995695,156.41312499996275,156.91201809979975,156.91357340011746,157.4115697001107,157.4115697001107,157.94412959972396,j,1,0.5246677999384701,None,,,,,16,001,2025-02-12_16h10.27.063,3.2.  1.16 psyexp,2024.2.4,60.143212960936154,2025-02-12 16h10.34.393271 +0800,
3,j,86,6,10,j,1,0.46360359992831945,None,10,6,86,2,157.95999090000987,,,,,,157.94429269991815,157.95999090000987,158.4587976001203,158.46015719976276,158.95802500005811,158.95802500005811,159.42485670000315,j,1,0.46360359992831945,None,,,,,16,001,2025-02-12_16h10.27.063,3.2.  1.16 psyexp,2024.2.4,60.143212960936154,2025-02-12 16h10.34.393271 +0800,
8,f,87,7,10,f,1,0.5520263998769224,None,10,7,87,6,159.44003230007365,,,,,,159.42501250002533,159.44003230007365,159.93877399992198,159.94017279986292,160.438091899734,160.438091899734,161.00430430006236,f,1,0.5520263998769224,None,,,,,16,001,2025-02-12_16h10.27.063,3.2.  1.16 psyexp,2024.2.4,60.143212960936154,2025-02-12 16h10.34.393271 +0800,
8,f,88,0,11,f,1,0.5343645000830293,None,11,0,88,6,161.02011759998277,,,,,,161.00454259989783,161.02011759998277,161.50301280012354,161.5052404999733,162.01779359998181,162.01779359998181,162.5677026999183,f,1,0.5343645000830293,None,161.51894100010395,,,,16,001,2025-02-12_16h10.27.063,3.2.  1.16 psyexp,2024.2.4,60.143212960936154,2025-02-12 16h10.34.393271 +0800,
2,j,89,1,11,j,1,0.49541869992390275,None,11,1,89,1,162.583538999781,,,,,,162.56783280009404,162.583538999781,163.08238069992512,163.08373920014128,163.5809683999978,163.5809683999978,164.0809967997484,j,1,0.49541869992390275,None,,,,,16,001,2025-02-12_16h10.27.063,3.2.  1.16 psyexp,2024.2.4,60.143212960936154,2025-02-12 16h10.34.393271 +0800,
1,j,90,2,11,j,1,0.5362177002243698,None,11,2,90,0,164.0965808997862,,,,,,164.08116229996085,164.0965808997862,164.57976609980687,164.58115349989384,165.09468310000375,165.09468310000375,165.64463520003483,j,1,0.5362177002243698,None,164.59541469998658,,,,16,001,2025-02-12_16h10.27.063,3.2.  1.16 psyexp,2024.2.4,60.143212960936154,2025-02-12 16h10.34.393271 +0800,
6,f,91,3,11,f,1,0.5552480001933873,None,11,3,91,4,165.66026389971375,,,,,,165.64481699978933,165.66026389971375,166.15886169997975,166.16062439978123,166.65796650014818,166.65796650014818,167.22427470004186,f,1,0.5552480001933873,None,,,,,16,001,2025-02-12_16h10.27.063,3.2.  1.16 psyexp,2024.2.4,60.143212960936154,2025-02-12 16h10.34.393271 +0800,
7,f,92,4,11,f,1,0.5123584000393748,None,11,4,92,5,167.24003979982808,,,,,,167.2244144999422,167.24003979982808,167.73909329995513,167.74055729992688,168.23777949996293,168.23777949996293,168.7541424999945,f,1,0.5123584000393748,None,,,,,16,001,2025-02-12_16h10.27.063,3.2.  1.16 psyexp,2024.2.4,60.143212960936154,2025-02-12 16h10.34.393271 +0800,
9,f,93,5,11,f,1,0.6240325001999736,None,11,5,93,7,168.7700928999111,,,,,,168.75428669992834,168.7700928999111,169.25335319992155,169.25474940007553,169.76795270014554,169.76795270014554,170.40069429995492,f,1,0.6240325001999736,None,169.2691008998081,,,,16,001,2025-02-12_16h10.27.063,3.2.  1.16 psyexp,2024.2.4,60.143212960936154,2025-02-12 16h10.34.393271 +0800,
3,j,94,6,11,j,1,0.5774101000279188,None,11,6,94,2,170.41632389975712,,,,,,170.40083849988878,170.41632389975712,170.89953059982508,170.9010103000328,171.41490590013564,171.41490590013564,171.99772629979998,j,1,0.5774101000279188,None,170.91560599999502,,,,16,001,2025-02-12_16h10.27.063,3.2.  1.16 psyexp,2024.2.4,60.143212960936154,2025-02-12 16h10.34.393271 +0800,
4,j,95,7,11,j,1,0.42190219974145293,None,11,7,95,3,172.0132538001053,,,,,,171.99788419995457,172.0132538001053,172.51261939993128,172.51398900011554,173.01123269973323,173.01123269973323,173.4441951001063,j,1,0.42190219974145293,None,,,,,16,001,2025-02-12_16h10.27.063,3.2.  1.16 psyexp,2024.2.4,60.143212960936154,2025-02-12 16h10.34.393271 +0800,
4,j,96,0,12,j,1,0.4502723002806306,None,12,0,96,3,173.45996440015733,,,,,,173.44435149990022,173.45996440015733,173.94304709974676,173.94443129980937,174.45800699992105,174.45800699992105,174.92456479975954,j,1,0.4502723002806306,None,173.95903099980205,,,,16,001,2025-02-12_16h10.27.063,3.2.  1.16 psyexp,2024.2.4,60.143212960936154,2025-02-12 16h10.34.393271 +0800,
8,f,97,1,12,f,1,0.5387933999300003,None,12,1,97,6,174.94030899973586,,,,,,174.92469639983028,174.94030899973586,175.4391956999898,175.4407148999162,175.9381466000341,175.9381466000341,176.48814709996805,f,1,0.5387933999300003,None,,,,,16,001,2025-02-12_16h10.27.063,3.2.  1.16 psyexp,2024.2.4,60.143212960936154,2025-02-12 16h10.34.393271 +0800,
6,f,98,2,12,f,1,0.5783507996238768,None,12,2,98,4,176.5041074999608,,,,,,176.48827910004184,176.5041074999608,177.00256269983947,177.00406119972467,177.5017601000145,177.5017601000145,178.08442809991539,f,1,0.5783507996238768,None,,,,,16,001,2025-02-12_16h10.27.063,3.2.  1.16 psyexp,2024.2.4,60.143212960936154,2025-02-12 16h10.34.393271 +0800,
3,j,99,3,12,j,1,0.655676499940455,None,12,3,99,2,178.09997410001233,,,,,,178.08456799993291,178.09997410001233,178.5831208000891,178.5851308000274,179.09819399984553,179.09819399984553,179.76436639996246,j,1,0.655676499940455,None,178.59978799987584,,,,16,001,2025-02-12_16h10.27.063,3.2.  1.16 psyexp,2024.2.4,60.143212960936154,2025-02-12 16h10.34.393271 +0800,
1,j,100,4,12,j,1,0.5873662000522017,None,12,4,100,0,179.7801045998931,,,,,,179.76451619993895,179.7801045998931,180.27886760002002,180.2803901997395,180.777915999759,180.777915999759,181.3773600999266,j,1,0.5873662000522017,None,,,,,16,001,2025-02-12_16h10.27.063,3.2.  1.16 psyexp,2024.2.4,60.143212960936154,2025-02-12 16h10.34.393271 +0800,
7,f,101,5,12,f,1,0.6594638000242412,None,12,5,101,5,181.39298669993877,,,,,,181.37750859977677,181.39298669993877,181.89224629988894,181.89372360007837,182.3910608999431,182.3910608999431,183.05755499983206,f,1,0.6594638000242412,None,,,,,16,001,2025-02-12_16h10.27.063,3.2.  1.16 psyexp,2024.2.4,60.143212960936154,2025-02-12 16h10.34.393271 +0800,
2,j,102,6,12,j,1,0.5563376001082361,None,12,6,102,1,183.0730722998269,,,,,,183.05772719997913,183.0730722998269,183.57184549979866,183.57336300006136,184.07084390008822,184.07084390008822,184.63757009990513,j,1,0.5563376001082361,None,,,,,16,001,2025-02-12_16h10.27.063,3.2.  1.16 psyexp,2024.2.4,60.143212960936154,2025-02-12 16h10.34.393271 +0800,
9,f,103,7,12,f,1,0.5828284001909196,None,12,7,103,7,184.65268479986116,,,,,,184.6377208000049,184.65268479986116,185.15200220001861,185.15343579975888,185.65093809971586,185.65093809971586,186.2506904997863,f,1,0.5828284001909196,None,,,,,16,001,2025-02-12_16h10.27.063,3.2.  1.16 psyexp,2024.2.4,60.143212960936154,2025-02-12 16h10.34.393271 +0800,
2,j,104,0,13,j,1,0.5590622001327574,None,13,0,104,1,186.26659830007702,,,,,,186.25082369986922,186.26659830007702,186.765124599915,186.76652939990163,187.26407149992883,187.26407149992883,187.8304175999947,j,1,0.5590622001327574,None,,,,,16,001,2025-02-12_16h10.27.063,3.2.  1.16 psyexp,2024.2.4,60.143212960936154,2025-02-12 16h10.34.393271 +0800,
8,f,105,1,13,f,1,0.559396400116384,None,13,1,105,6,187.8458859999664,,,,,,187.83055280009285,187.8458859999664,188.32902549998835,188.33042769972235,188.84406539984047,188.84406539984047,189.4103405000642,f,1,0.559396400116384,None,188.3450949001126,,,,16,001,2025-02-12_16h10.27.063,3.2.  1.16 psyexp,2024.2.4,60.143212960936154,2025-02-12 16h10.34.393271 +0800,
6,f,106,2,13,f,1,0.48919739993289113,None,13,2,106,4,189.4261553999968,,,,,,189.41048099985346,189.4261553999968,189.92487009987235,189.92625019978732,190.4241563999094,190.4241563999094,190.92383829969913,f,1,0.48919739993289113,None,,,,,16,001,2025-02-12_16h10.27.063,3.2.  1.16 psyexp,2024.2.4,60.143212960936154,2025-02-12 16h10.34.393271 +0800,
4,j,107,3,13,j,1,0.4637325000949204,None,13,3,107,3,190.93955599982291,,,,,,190.9240104998462,190.93955599982291,191.43859259970486,191.44028500001878,191.93742269976065,191.93742269976065,192.40436480008066,j,1,0.4637325000949204,None,,,,,16,001,2025-02-12_16h10.27.063,3.2.  1.16 psyexp,2024.2.4,60.143212960936154,2025-02-12 16h10.34.393271 +0800,
3,j,108,4,13,j,1,0.4699647999368608,None,13,4,108,2,192.4196516997181,,,,,,192.4045003997162,192.4196516997181,192.90297860000283,192.9045484997332,193.41768770013005,193.41768770013005,193.90098399994895,j,1,0.4699647999368608,None,192.918551299721,,,,16,001,2025-02-12_16h10.27.063,3.2.  1.16 psyexp,2024.2.4,60.143212960936154,2025-02-12 16h10.34.393271 +0800,
7,f,109,5,13,f,1,0.7184111997485161,None,13,5,109,5,193.91655999980867,,,,,,193.90114270010963,193.91655999980867,194.41536509990692,194.41673959977925,194.91450640000403,194.91450640000403,195.6472082999535,f,1,0.7184111997485161,None,,,,,16,001,2025-02-12_16h10.27.063,3.2.  1.16 psyexp,2024.2.4,60.143212960936154,2025-02-12 16h10.34.393271 +0800,
1,j,110,6,13,j,1,0.4953764001838863,None,13,6,110,0,195.66285210009664,,,,,,195.64734729984775,195.66285210009664,196.16184950014576,196.16323400009423,196.66083290008828,196.66083290008828,197.16053689969704,j,1,0.4953764001838863,None,,,,,16,001,2025-02-12_16h10.27.063,3.2.  1.16 psyexp,2024.2.4,60.143212960936154,2025-02-12 16h10.34.393271 +0800,
9,f,111,7,13,f,1,0.6483384002931416,None,13,7,111,7,197.17615359975025,,,,,,197.1606829999946,197.17615359975025,197.6753227999434,197.67669859994203,198.17458399990574,198.17458399990574,198.82467459980398,f,1,0.6483384002931416,None,,,,,16,001,2025-02-12_16h10.27.063,3.2.  1.16 psyexp,2024.2.4,60.143212960936154,2025-02-12 16h10.34.393271 +0800,
1,j,112,0,14,j,1,0.5013615000061691,None,14,0,112,0,198.8392495000735,,,,,,198.82483629975468,198.8392495000735,199.32251060009003,199.3238735999912,199.8372742999345,199.8372742999345,200.354503700044,j,1,0.5013615000061691,None,199.33837139979005,,,,16,001,2025-02-12_16h10.27.063,3.2.  1.16 psyexp,2024.2.4,60.143212960936154,2025-02-12 16h10.34.393271 +0800,
6,f,113,1,14,f,1,0.675333300139755,None,14,1,113,4,200.36962050013244,,,,,,200.35466579999775,200.36962050013244,200.86844890005887,200.87003309978172,201.36732679978013,201.36732679978013,202.0505348998122,f,1,0.675333300139755,None,,,,,16,001,2025-02-12_16h10.27.063,3.2.  1.16 psyexp,2024.2.4,60.143212960936154,2025-02-12 16h10.34.393271 +0800,
3,j,114,2,14,j,1,0.5530186002142727,None,14,2,114,2,202.06576160015538,,,,,,202.05068959994242,202.06576160015538,202.54873659973964,202.55012049991637,203.06376879988238,203.06376879988238,203.6317567997612,j,1,0.5530186002142727,None,202.56484240014106,,,,16,001,2025-02-12_16h10.27.063,3.2.  1.16 psyexp,2024.2.4,60.143212960936154,2025-02-12 16h10.34.393271 +0800,
7,f,115,3,14,f,1,0.5799763998948038,None,14,3,115,5,203.6458358997479,,,,,,203.63190239993855,203.6458358997479,204.14467229973525,204.14660360012203,204.6438615997322,204.6438615997322,205.22658459981903,f,1,0.5799763998948038,None,,,,,16,001,2025-02-12_16h10.27.063,3.2.  1.16 psyexp,2024.2.4,60.143212960936154,2025-02-12 16h10.34.393271 +0800,
4,j,116,4,14,j,1,0.5079559995792806,None,14,4,116,3,205.2422148999758,,,,,,205.2267292998731,205.2422148999758,205.72534859972075,205.72671219985932,206.24041309999302,206.24041309999302,206.75702839996666,j,1,0.5079559995792806,None,205.74131599999964,,,,16,001,2025-02-12_16h10.27.063,3.2.  1.16 psyexp,2024.2.4,60.143212960936154,2025-02-12 16h10.34.393271 +0800,
9,f,117,5,14,f,1,0.5050464002415538,None,14,5,117,7,206.77213650010526,,,,,,206.7571653998457,206.77213650010526,207.25504529988393,207.2564253997989,207.77046740008518,207.77046740008518,208.28681650012732,f,1,0.5050464002415538,None,207.27128979982808,,,,16,001,2025-02-12_16h10.27.063,3.2.  1.16 psyexp,2024.2.4,60.143212960936154,2025-02-12 16h10.34.393271 +0800,
2,j,118,6,14,j,1,0.6036306000314653,None,14,6,118,1,208.302712299861,,,,,,208.28696409985423,208.302712299861,208.80131499981508,208.80267799971625,209.3008824000135,209.3008824000135,209.9170727999881,j,1,0.6036306000314653,None,,,,,16,001,2025-02-12_16h10.27.063,3.2.  1.16 psyexp,2024.2.4,60.143212960936154,2025-02-12 16h10.34.393271 +0800,
8,f,119,7,14,f,1,0.7247731001116335,None,14,7,119,6,209.93224139977247,,,,,,209.91721339989454,209.93224139977247,210.4312283997424,210.43263590009883,210.93033359991387,210.93033359991387,211.66333469981328,f,1,0.7247731001116335,None,,,,,16,001,2025-02-12_16h10.27.063,3.2.  1.16 psyexp,2024.2.4,60.143212960936154,2025-02-12 16h10.34.393271 +0800,
3,j,120,0,15,j,1,0.4981153002008796,None,15,0,120,2,211.67838290007785,,,,,,211.66352479998022,211.67838290007785,212.1615172997117,212.1630444000475,212.67647140007466,212.67647140007466,213.17686139978468,j,1,0.4981153002008796,None,212.1777057996951,,,,16,001,2025-02-12_16h10.27.063,3.2.  1.16 psyexp,2024.2.4,60.143212960936154,2025-02-12 16h10.34.393271 +0800,
9,f,121,1,15,f,1,0.8225131998769939,None,15,1,121,7,213.19206980010495,,,,,,213.17702300008386,213.19206980010495,213.69112409977242,213.69255180004984,214.19002659991384,214.19002659991384,215.0222513996996,f,1,0.8225131998769939,None,,,,,16,001,2025-02-12_16h10.27.063,3.2.  1.16 psyexp,2024.2.4,60.143212960936154,2025-02-12 16h10.34.393271 +0800,
8,f,122,2,15,f,1,0.6284870998933911,None,15,2,122,6,215.03808780014515,,,,,,215.02239379985258,215.03808780014515,215.52107879985124,215.52245760010555,216.03604089980945,216.03604089980945,216.66882569994777,f,1,0.6284870998933911,None,215.53687490010634,,,,16,001,2025-02-12_16h10.27.063,3.2.  1.16 psyexp,2024.2.4,60.143212960936154,2025-02-12 16h10.34.393271 +0800,
4,j,123,3,15,j,1,0.518130199983716,None,15,3,123,3,216.68462810013443,,,,,,216.66896669985726,216.68462810013443,217.18373049981892,217.18545709969476,217.68243179982528,217.68243179982528,218.2156368996948,j,1,0.518130199983716,None,,,,,16,001,2025-02-12_16h10.27.063,3.2.  1.16 psyexp,2024.2.4,60.143212960936154,2025-02-12 16h10.34.393271 +0800,
6,f,124,4,15,f,1,1.118750900030136,None,15,4,124,4,218.2313033998944,,,,,,218.215788600035,218.2313033998944,218.73012319998816,218.73149430006742,219.22960419999436,219.22960419999436,220.36130229989067,f,1,1.118750900030136,None,,,,,16,001,2025-02-12_16h10.27.063,3.2.  1.16 psyexp,2024.2.4,60.143212960936154,2025-02-12 16h10.34.393271 +0800,
1,j,125,5,15,j,1,0.5268347002565861,None,15,5,125,0,220.37703129975125,,,,,,220.3614517999813,220.37703129975125,220.8756117001176,220.87698459997773,221.37479869974777,221.37479869974777,221.90768550010398,j,1,0.5268347002565861,None,,,,,16,001,2025-02-12_16h10.27.063,3.2.  1.16 psyexp,2024.2.4,60.143212960936154,2025-02-12 16h10.34.393271 +0800,
7,f,126,6,15,f,1,0.5048756999894977,None,15,6,126,5,221.92342199990526,,,,,,221.90783610008657,221.92342199990526,222.4065346000716,222.4078982998617,222.92157740006223,222.92157740006223,223.4382674000226,f,1,0.5048756999894977,None,222.4223289997317,,,,16,001,2025-02-12_16h10.27.063,3.2.  1.16 psyexp,2024.2.4,60.143212960936154,2025-02-12 16h10.34.393271 +0800,
2,j,127,7,15,j,1,0.4738318999297917,None,15,7,127,1,223.45380469970405,,,,,,223.43840039987117,223.45380469970405,223.9529367997311,223.95479819970205,224.45137180015445,224.45137180015445,224.93489529984072,j,1,0.4738318999297917,None,,,,,16,001,2025-02-12_16h10.27.063,3.2.  1.16 psyexp,2024.2.4,60.143212960936154,2025-02-12 16h10.34.393271 +0800,
6,f,128,0,16,f,1,0.5090210000053048,None,16,0,128,4,224.9502882999368,,,,,,224.9350510998629,224.9502882999368,225.43355999980122,225.43497909978032,225.94847679976374,225.94847679976374,226.46499119978398,f,1,0.5090210000053048,None,225.44918840005994,,,,16,001,2025-02-12_16h10.27.063,3.2.  1.16 psyexp,2024.2.4,60.143212960936154,2025-02-12 16h10.34.393271 +0800,
9,f,129,1,16,f,1,0.5169786000624299,None,16,1,129,7,226.48024139972404,,,,,,226.4651406998746,226.48024139972404,226.96358479978517,226.96514259977266,227.47806280013174,227.47806280013174,228.01170769985765,f,1,0.5169786000624299,None,226.97936150012538,,,,16,001,2025-02-12_16h10.27.063,3.2.  1.16 psyexp,2024.2.4,60.143212960936154,2025-02-12 16h10.34.393271 +0800,
7,f,130,2,16,f,1,0.48355979984626174,None,16,2,130,5,228.02724510012195,,,,,,228.0118911997415,228.02724510012195,228.51017839973792,228.51154319988564,229.0251005999744,229.0251005999744,229.525297800079,f,1,0.48355979984626174,None,228.5260695000179,,,,16,001,2025-02-12_16h10.27.063,3.2.  1.16 psyexp,2024.2.4,60.143212960936154,2025-02-12 16h10.34.393271 +0800,
8,f,131,3,16,f,1,0.4874229999259114,None,16,3,131,6,229.54073389992118,,,,,,229.52543319994584,229.54073389992118,230.03972500003874,230.04139919998124,230.53834659978747,230.53834659978747,231.03838759986684,f,1,0.4874229999259114,None,,,,,16,001,2025-02-12_16h10.27.063,3.2.  1.16 psyexp,2024.2.4,60.143212960936154,2025-02-12 16h10.34.393271 +0800,
1,j,132,4,16,j,1,0.47167619969695807,None,16,4,132,0,231.0540855000727,,,,,,231.03856609994546,231.0540855000727,231.5371941998601,231.538569400087,232.05167039996013,232.05167039996013,232.53515109978616,j,1,0.47167619969695807,None,231.55317870015278,,,,16,001,2025-02-12_16h10.27.063,3.2.  1.16 psyexp,2024.2.4,60.143212960936154,2025-02-12 16h10.34.393271 +0800,
3,j,133,5,16,f,0,0.5415477999486029,None,16,5,133,2,232.5506333000958,,,,,,232.53529059980065,232.5506333000958,233.03359040012583,233.0349705000408,233.5487707001157,233.5487707001157,234.0985811999999,f,0,0.5415477999486029,None,233.04983130004257,,,,16,001,2025-02-12_16h10.27.063,3.2.  1.16 psyexp,2024.2.4,60.143212960936154,2025-02-12 16h10.34.393271 +0800,
4,j,134,6,16,j,1,1.5898653999902308,None,16,6,134,3,234.11448419978842,,,,,,234.09874319983646,234.11448419978842,234.61319669988006,234.61454979982227,235.11234800005332,235.11234800005332,236.709674899932,j,1,1.5898653999902308,None,,,,,16,001,2025-02-12_16h10.27.063,3.2.  1.16 psyexp,2024.2.4,60.143212960936154,2025-02-12 16h10.34.393271 +0800,
2,j,135,7,16,j,1,0.7124214000068605,None,16,7,135,1,236.72490740008652,,,,,,236.70981599995866,236.72490740008652,237.2080807997845,237.2095027999021,237.72351939976215,237.72351939976215,238.4397605000995,j,1,0.7124214000068605,None,237.22426800010726,,,,16,001,2025-02-12_16h10.27.063,3.2.  1.16 psyexp,2024.2.4,60.143212960936154,2025-02-12 16h10.34.393271 +0800,
1,j,136,0,17,j,1,0.508266200311482,None,17,0,136,0,238.45471470011398,,,,,,238.43989069992676,238.45471470011398,238.93769960012287,238.93918940005824,239.45239909971133,239.45239909971133,239.9693587999791,j,1,0.508266200311482,None,238.95376079995185,,,,16,001,2025-02-12_16h10.27.063,3.2.  1.16 psyexp,2024.2.4,60.143212960936154,2025-02-12 16h10.34.393271 +0800,
8,f,137,1,17,f,1,0.480708499904722,None,17,1,137,6,239.9849481000565,,,,,,239.96949909999967,239.9849481000565,240.48451260011643,240.4859637999907,240.9828587998636,240.9828587998636,241.4670270998031,f,1,0.480708499904722,None,,,,,16,001,2025-02-12_16h10.27.063,3.2.  1.16 psyexp,2024.2.4,60.143212960936154,2025-02-12 16h10.34.393271 +0800,
9,f,138,2,17,f,1,0.4618080002255738,None,17,2,138,7,241.48177239997312,,,,,,241.46721029980108,241.48177239997312,241.9646943998523,241.96620059991255,242.4797982997261,242.4797982997261,242.94609529990703,f,1,0.4618080002255738,None,241.9807700999081,,,,16,001,2025-02-12_16h10.27.063,3.2.  1.16 psyexp,2024.2.4,60.143212960936154,2025-02-12 16h10.34.393271 +0800,
6,f,139,3,17,f,1,0.5957211996428668,None,17,3,139,4,242.96177739975974,,,,,,242.94624939979985,242.96177739975974,243.4453015998006,243.44703819975257,243.96012239996344,243.96012239996344,244.55939990002662,f,1,0.5957211996428668,None,243.4611102999188,,,,16,001,2025-02-12_16h10.27.063,3.2.  1.16 psyexp,2024.2.4,60.143212960936154,2025-02-12 16h10.34.393271 +0800,
4,j,140,4,17,j,1,0.4534764997661114,None,17,4,140,3,244.57503309985623,,,,,,244.55954239983112,244.57503309985623,245.05827519996092,245.05964560015127,245.5731246001087,245.5731246001087,246.03985199984163,j,1,0.4534764997661114,None,245.07402619998902,,,,16,001,2025-02-12_16h10.27.063,3.2.  1.16 psyexp,2024.2.4,60.143212960936154,2025-02-12 16h10.34.393271 +0800,
3,j,141,5,17,j,1,0.4171593999490142,None,17,5,141,2,246.05531510012224,,,,,,246.04000880010426,246.05531510012224,246.53847469994798,246.53985869977623,247.0534069999121,247.0534069999121,247.48657449986786,j,1,0.4171593999490142,None,246.55480509996414,,,,16,001,2025-02-12_16h10.27.063,3.2.  1.16 psyexp,2024.2.4,60.143212960936154,2025-02-12 16h10.34.393271 +0800,
2,j,142,6,17,j,1,0.39317569974809885,None,17,6,142,1,247.5023785997182,,,,,,247.48671709978953,247.5023785997182,248.00140319997445,248.00276080006734,248.50060939975083,248.50060939975083,248.90055579971522,j,1,0.39317569974809885,None,,,,,16,001,2025-02-12_16h10.27.063,3.2.  1.16 psyexp,2024.2.4,60.143212960936154,2025-02-12 16h10.34.393271 +0800,
7,f,143,7,17,f,1,0.8199729998596013,None,17,7,143,5,248.91619679983705,,,,,,248.90069289971143,248.91619679983705,249.4152051000856,249.41658319998533,249.91408680006862,249.91408680006862,250.7463883999735,f,1,0.8199729998596013,None,,,,,16,001,2025-02-12_16h10.27.063,3.2.  1.16 psyexp,2024.2.4,60.143212960936154,2025-02-12 16h10.34.393271 +0800,
8,f,144,0,18,f,1,0.4779413999058306,None,18,0,144,6,250.76168989995494,,,,,,250.74652360007167,250.76168989995494,251.2447766000405,251.24623830011114,251.7599152997136,251.7599152997136,252.24340400006622,f,1,0.4779413999058306,None,251.26101509993896,,,,16,001,2025-02-12_16h10.27.063,3.2.  1.16 psyexp,2024.2.4,60.143212960936154,2025-02-12 16h10.34.393271 +0800,
4,j,145,1,18,j,1,0.5147327999584377,None,18,1,145,3,252.25875169970095,,,,,,252.24358469992876,252.25875169970095,252.7417242997326,252.74316649977118,253.25683629978448,253.25683629978448,253.77342800004408,j,1,0.5147327999584377,None,252.75786380004138,,,,16,001,2025-02-12_16h10.27.063,3.2.  1.16 psyexp,2024.2.4,60.143212960936154,2025-02-12 16h10.34.393271 +0800,
6,f,146,2,18,f,1,0.9281844003126025,None,18,2,146,4,253.78872400010005,,,,,,253.77356910007074,253.78872400010005,254.27188419969752,254.27324680006132,254.78701859991997,254.78701859991997,255.71900259982795,f,1,0.9281844003126025,None,254.2878331998363,,,,16,001,2025-02-12_16h10.27.063,3.2.  1.16 psyexp,2024.2.4,60.143212960936154,2025-02-12 16h10.34.393271 +0800,
2,j,147,3,18,j,1,0.7101064999587834,None,18,3,147,1,255.7345559000969,,,,,,255.7191482000053,255.7345559000969,256.2176763997413,256.21936069987714,256.73289849981666,256.73289849981666,257.4494372997433,j,1,0.7101064999587834,None,256.23385850014165,,,,16,001,2025-02-12_16h10.27.063,3.2.  1.16 psyexp,2024.2.4,60.143212960936154,2025-02-12 16h10.34.393271 +0800,
1,j,148,4,18,j,1,0.5293543003499508,None,18,4,148,0,257.4645408997312,,,,,,257.4496706998907,257.4645408997312,257.9635028000921,257.9648655997589,258.46210289979354,258.46210289979354,258.9952265000902,j,1,0.5293543003499508,None,,,,,16,001,2025-02-12_16h10.27.063,3.2.  1.16 psyexp,2024.2.4,60.143212960936154,2025-02-12 16h10.34.393271 +0800,
7,f,149,5,18,f,1,0.5840893001295626,None,18,5,149,5,259.0111794997938,,,,,,258.99537739995867,259.0111794997938,259.49423650000244,259.4956179000437,260.0090656001121,260.0090656001121,260.6085526999086,f,1,0.5840893001295626,None,259.5100807999261,,,,16,001,2025-02-12_16h10.27.063,3.2.  1.16 psyexp,2024.2.4,60.143212960936154,2025-02-12 16h10.34.393271 +0800,
3,j,150,6,18,j,1,0.5653945999220014,None,18,6,150,2,260.6241620997898,,,,,,260.6086959000677,260.6241620997898,261.10742409992963,261.1088137999177,261.6221619998105,261.6221619998105,262.1889073001221,j,1,0.5653945999220014,None,261.1230369997211,,,,16,001,2025-02-12_16h10.27.063,3.2.  1.16 psyexp,2024.2.4,60.143212960936154,2025-02-12 16h10.34.393271 +0800,
9,f,151,7,18,f,1,0.6054313997738063,None,18,7,151,7,262.2045240998268,,,,,,262.18906479980797,262.2045240998268,262.70325140003115,262.7046746001579,263.2024338999763,263.2024338999763,263.8185924999416,f,1,0.6054313997738063,None,,,,,16,001,2025-02-12_16h10.27.063,3.2.  1.16 psyexp,2024.2.4,60.143212960936154,2025-02-12 16h10.34.393271 +0800,
9,f,152,0,19,f,1,0.4486034996807575,None,19,0,152,7,263.8341327998787,,,,,,263.81874909996986,263.8341327998787,264.33317899983376,264.3345516999252,264.8322771997191,264.8322771997191,265.28231009980664,f,1,0.4486034996807575,None,,,,,16,001,2025-02-12_16h10.27.063,3.2.  1.16 psyexp,2024.2.4,60.143212960936154,2025-02-12 16h10.34.393271 +0800,
8,f,153,1,19,f,1,0.5127555998042226,None,19,1,153,6,265.29795889975503,,,,,,265.28248120006174,265.29795889975503,265.7966164997779,265.79807640006766,266.29573050001636,266.29573050001636,266.81202950002626,f,1,0.5127555998042226,None,,,,,16,001,2025-02-12_16h10.27.063,3.2.  1.16 psyexp,2024.2.4,60.143212960936154,2025-02-12 16h10.34.393271 +0800,
2,j,154,2,19,j,1,0.5385637003928423,None,19,2,154,1,266.82787569984794,,,,,,266.81217949977145,266.82787569984794,267.32682289974764,267.32827810011804,267.8256425000727,267.8256425000727,268.3757509998977,j,1,0.5385637003928423,None,,,,,16,001,2025-02-12_16h10.27.063,3.2.  1.16 psyexp,2024.2.4,60.143212960936154,2025-02-12 16h10.34.393271 +0800,
1,j,155,3,19,j,1,0.4639812000095844,None,19,3,155,0,268.3910926999524,,,,,,268.37590509979054,268.3910926999524,268.8902386999689,268.89190819999203,269.38943259976804,269.38943259976804,269.8555314997211,j,1,0.4639812000095844,None,,,,,16,001,2025-02-12_16h10.27.063,3.2.  1.16 psyexp,2024.2.4,60.143212960936154,2025-02-12 16h10.34.393271 +0800,
4,j,156,4,19,f,0,0.48701969999819994,None,19,4,156,3,269.8713801000267,,,,,,269.8556939000264,269.8713801000267,270.37010450009257,270.371837799903,270.86924309981987,270.86924309981987,271.36954039987177,f,0,0.48701969999819994,None,,,,,16,001,2025-02-12_16h10.27.063,3.2.  1.16 psyexp,2024.2.4,60.143212960936154,2025-02-12 16h10.34.393271 +0800,
7,f,157,5,19,f,1,0.9569498999044299,None,19,5,157,5,271.3849367001094,,,,,,271.3697004998103,271.3849367001094,271.883854100015,271.88520189980045,272.3828569999896,272.3828569999896,273.3481584000401,f,1,0.9569498999044299,None,,,,,16,001,2025-02-12_16h10.27.063,3.2.  1.16 psyexp,2024.2.4,60.143212960936154,2025-02-12 16h10.34.393271 +0800,
3,j,158,6,19,j,1,1.0221623997204006,None,19,6,158,2,273.3636976997368,,,,,,273.3482981999405,273.3636976997368,273.8468364998698,273.848310300149,274.3618640000932,274.3618640000932,275.3939948999323,j,1,1.0221623997204006,None,273.86267550010234,,,,16,001,2025-02-12_16h10.27.063,3.2.  1.16 psyexp,2024.2.4,60.143212960936154,2025-02-12 16h10.34.393271 +0800,
6,f,159,7,19,f,1,1.0629396000877023,None,19,7,159,4,275.40944440010935,,,,,,275.3941454999149,275.40944440010935,275.90843759989366,275.9099535997957,276.4073385000229,276.4073385000229,277.47309880005196,f,1,1.0629396000877023,None,,,,,16,001,2025-02-12_16h10.27.063,3.2.  1.16 psyexp,2024.2.4,60.143212960936154,2025-02-12 16h10.34.393271 +0800,
9,f,160,0,20,f,1,0.7473792997188866,None,20,0,160,7,277.4887719997205,,,,,,277.4732423997484,277.4887719997205,277.9874787000008,277.9888319997117,278.4866697001271,278.4866697001271,279.2356934999116,f,1,0.7473792997188866,None,,,,,16,001,2025-02-12_16h10.27.063,3.2.  1.16 psyexp,2024.2.4,60.143212960936154,2025-02-12 16h10.34.393271 +0800,
2,j,161,1,20,j,1,0.5654577999375761,None,20,1,161,1,279.25129480008036,,,,,,279.2358403997496,279.25129480008036,279.7504710997455,279.7518291999586,280.2495023999363,280.2495023999363,280.83185129985213,j,1,0.5654577999375761,None,,,,,16,001,2025-02-12_16h10.27.063,3.2.  1.16 psyexp,2024.2.4,60.143212960936154,2025-02-12 16h10.34.393271 +0800,
3,j,162,2,20,j,1,0.5200284002348781,None,20,2,162,2,280.84800700005144,,,,,,280.83199949981645,280.84800700005144,281.3467894997448,281.3481279001571,281.8459982997738,281.8459982997738,282.3791392999701,j,1,0.5200284002348781,None,,,,,16,001,2025-02-12_16h10.27.063,3.2.  1.16 psyexp,2024.2.4,60.143212960936154,2025-02-12 16h10.34.393271 +0800,
1,j,163,3,20,j,1,0.5267167999409139,None,20,3,163,0,282.39469370013103,,,,,,282.379292299971,282.39469370013103,282.8937162999064,282.8957631997764,283.39272309979424,283.39272309979424,283.9254352999851,j,1,0.5267167999409139,None,,,,,16,001,2025-02-12_16h10.27.063,3.2.  1.16 psyexp,2024.2.4,60.143212960936154,2025-02-12 16h10.34.393271 +0800,
8,f,164,4,20,f,1,0.569234199821949,None,20,4,164,6,283.9414421999827,,,,,,283.9255762998946,283.9414421999827,284.4404462999664,284.44189340015873,284.9395213997923,284.9395213997923,285.52236420009285,f,1,0.569234199821949,None,,,,,16,001,2025-02-12_16h10.27.063,3.2.  1.16 psyexp,2024.2.4,60.143212960936154,2025-02-12 16h10.34.393271 +0800,
4,j,165,5,20,j,1,1.0220583998598158,None,20,5,165,3,285.53771789977327,,,,,,285.52252739993855,285.53771789977327,286.02096389979124,286.0223721000366,286.53605190012604,286.53605190012604,287.56794789992273,j,1,1.0220583998598158,None,286.03688389994204,,,,16,001,2025-02-12_16h10.27.063,3.2.  1.16 psyexp,2024.2.4,60.143212960936154,2025-02-12 16h10.34.393271 +0800,
6,f,166,6,20,f,1,0.8461507000029087,None,20,6,166,4,287.58339769998565,,,,,,287.5680883000605,287.58339769998565,288.0665310998447,288.0680021997541,288.58158410014585,288.58158410014585,289.4310022001155,f,1,0.8461507000029087,None,288.082449299749,,,,16,001,2025-02-12_16h10.27.063,3.2.  1.16 psyexp,2024.2.4,60.143212960936154,2025-02-12 16h10.34.393271 +0800,
7,f,167,7,20,f,1,0.7377605000510812,None,20,7,167,5,289.44626699993387,,,,,,289.431137799751,289.44626699993387,289.92921719979495,289.93060790002346,290.44409269979224,290.44409269979224,291.1934485998936,f,1,0.7377605000510812,None,289.9455466000363,,,,16,001,2025-02-12_16h10.27.063,3.2.  1.16 psyexp,2024.2.4,60.143212960936154,2025-02-12 16h10.34.393271 +0800,
1,j,168,0,21,j,1,0.536272999830544,None,21,0,168,0,291.2090247999877,,,,,,291.1936051999219,291.2090247999877,291.70826569991186,291.7095955000259,292.20721790008247,292.20721790008247,292.75662969984114,j,1,0.536272999830544,None,,,,,16,001,2025-02-12_16h10.27.063,3.2.  1.16 psyexp,2024.2.4,60.143212960936154,2025-02-12 16h10.34.393271 +0800,
7,f,169,1,21,f,1,0.6748536000959575,None,21,1,169,5,292.7725694999099,,,,,,292.7567758997902,292.7725694999099,293.2555267997086,293.25687729986385,293.77036469988525,293.77036469988525,294.4535217001103,f,1,0.6748536000959575,None,293.2718210997991,,,,16,001,2025-02-12_16h10.27.063,3.2.  1.16 psyexp,2024.2.4,60.143212960936154,2025-02-12 16h10.34.393271 +0800,
8,f,170,2,21,f,1,0.7061079000122845,None,21,2,170,6,294.4694590996951,,,,,,294.45367119973525,294.4694590996951,294.96811729995534,294.9695039000362,295.4669618997723,295.4669618997723,296.1830683997832,f,1,0.7061079000122845,None,,,,,16,001,2025-02-12_16h10.27.063,3.2.  1.16 psyexp,2024.2.4,60.143212960936154,2025-02-12 16h10.34.393271 +0800,
3,j,171,3,21,j,1,0.7298007998615503,None,21,3,171,2,296.1987402001396,,,,,,296.18320109974593,296.1987402001396,296.6975871999748,296.6994209000841,297.196432299912,297.196432299912,297.928976399824,j,1,0.7298007998615503,None,,,,,16,001,2025-02-12_16h10.27.063,3.2.  1.16 psyexp,2024.2.4,60.143212960936154,2025-02-12 16h10.34.393271 +0800,
2,j,172,4,21,j,1,0.491062100045383,None,21,4,172,1,297.94478499982506,,,,,,297.929131699726,297.94478499982506,298.44375440012664,298.44511110009626,298.94309510011226,298.94309510011226,299.4429955999367,j,1,0.491062100045383,None,,,,,16,001,2025-02-12_16h10.27.063,3.2.  1.16 psyexp,2024.2.4,60.143212960936154,2025-02-12 16h10.34.393271 +0800,
6,f,173,5,21,f,1,0.7708967002108693,None,21,5,173,4,299.4582786001265,,,,,,299.44315919978544,299.4582786001265,299.9577575000003,299.95910209976137,300.45623569982126,300.45623569982126,301.23917840002105,f,1,0.7708967002108693,None,,,,,16,001,2025-02-12_16h10.27.063,3.2.  1.16 psyexp,2024.2.4,60.143212960936154,2025-02-12 16h10.34.393271 +0800,
4,j,174,6,21,j,1,0.6699522999115288,None,21,6,174,3,301.2541609997861,,,,,,301.23931779991835,301.2541609997861,301.7371739000082,301.7385375997983,302.2525408999063,302.2525408999063,302.9353268998675,j,1,0.6699522999115288,None,301.7531364997849,,,,16,001,2025-02-12_16h10.27.063,3.2.  1.16 psyexp,2024.2.4,60.143212960936154,2025-02-12 16h10.34.393271 +0800,
9,f,175,7,21,f,1,0.8514994001016021,None,21,7,175,7,302.95092129986733,,,,,,302.93546529999,302.95092129986733,303.433818299789,303.43517210008577,303.94884449988604,303.94884449988604,304.8143476000987,f,1,0.8514994001016021,None,303.449588699732,,,,16,001,2025-02-12_16h10.27.063,3.2.  1.16 psyexp,2024.2.4,60.143212960936154,2025-02-12 16h10.34.393271 +0800,
4,j,176,0,22,j,1,0.6840535001829267,None,22,0,176,3,304.830004400108,,,,,,304.814486999996,304.830004400108,305.31301939999685,305.31448070006445,305.8278982001357,305.8278982001357,306.52760769985616,j,1,0.6840535001829267,None,305.329157799948,,,,16,001,2025-02-12_16h10.27.063,3.2.  1.16 psyexp,2024.2.4,60.143212960936154,2025-02-12 16h10.34.393271 +0800,
2,j,177,1,22,j,1,0.631891299970448,None,22,1,177,1,306.5430179000832,,,,,,306.5277438000776,306.5430179000832,307.0265473998152,307.0280559998937,307.541911999695,307.541911999695,308.1909218998626,j,1,0.631891299970448,None,307.0425325999968,,,,16,001,2025-02-12_16h10.27.063,3.2.  1.16 psyexp,2024.2.4,60.143212960936154,2025-02-12 16h10.34.393271 +0800,
9,f,178,2,22,f,1,0.5913761998526752,None,22,2,178,7,308.2067084000446,,,,,,308.1910723000765,308.2067084000446,308.7058617998846,308.7074007000774,309.20446759974584,309.20446759974584,309.8044837997295,f,1,0.5913761998526752,None,,,,,16,001,2025-02-12_16h10.27.063,3.2.  1.16 psyexp,2024.2.4,60.143212960936154,2025-02-12 16h10.34.393271 +0800,
6,f,179,3,22,f,1,0.8158591999672353,None,22,3,179,4,309.81987310014665,,,,,,309.8047321997583,309.81987310014665,310.3186975000426,310.3206321997568,310.8172363000922,310.8172363000922,311.6498990999535,f,1,0.8158591999672353,None,,,,,16,001,2025-02-12_16h10.27.063,3.2.  1.16 psyexp,2024.2.4,60.143212960936154,2025-02-12 16h10.34.393271 +0800,
1,j,180,4,22,j,1,0.7084087003022432,None,22,4,180,0,311.66548720002174,,,,,,311.65011199982837,311.66548720002174,312.14841799996793,312.14980729995295,312.66335549997166,312.66335549997166,313.3792683999054,j,1,0.7084087003022432,None,312.1641438999213,,,,16,001,2025-02-12_16h10.27.063,3.2.  1.16 psyexp,2024.2.4,60.143212960936154,2025-02-12 16h10.34.393271 +0800,
3,j,181,5,22,j,1,0.4912179000675678,None,22,5,181,2,313.3950418001041,,,,,,313.3794085998088,313.3950418001041,313.89418959990144,313.8957619997673,314.3931243997067,314.3931243997067,314.89286539983004,j,1,0.4912179000675678,None,,,,,16,001,2025-02-12_16h10.27.063,3.2.  1.16 psyexp,2024.2.4,60.143212960936154,2025-02-12 16h10.34.393271 +0800,
7,f,182,6,22,f,1,0.5812981002964079,None,22,6,182,5,314.90846009971574,,,,,,314.8930044998415,314.90846009971574,315.4074928998016,315.4088524999097,315.9064012998715,315.9064012998715,316.4895240999758,f,1,0.5812981002964079,None,,,,,16,001,2025-02-12_16h10.27.063,3.2.  1.16 psyexp,2024.2.4,60.143212960936154,2025-02-12 16h10.34.393271 +0800,
8,f,183,7,22,f,1,0.5434745000675321,None,22,7,183,6,316.505111400038,,,,,,316.4897171999328,316.505111400038,316.98814489971846,316.98952989978716,317.5029092999175,317.5029092999175,318.0528310998343,f,1,0.5434745000675321,None,317.0039808996953,,,,16,001,2025-02-12_16h10.27.063,3.2.  1.16 psyexp,2024.2.4,60.143212960936154,2025-02-12 16h10.34.393271 +0800,
4,j,184,0,23,j,1,0.7832593000493944,None,23,0,184,3,318.0682624997571,,,,,,318.05297720013186,318.0682624997571,318.55126259988174,318.5526621998288,319.06634779972956,319.06634779972956,319.8654391998425,j,1,0.7832593000493944,None,318.56726109981537,,,,16,001,2025-02-12_16h10.27.063,3.2.  1.16 psyexp,2024.2.4,60.143212960936154,2025-02-12 16h10.34.393271 +0800,
7,f,185,1,23,f,1,0.6763819996267557,None,23,1,185,5,319.8811889998615,,,,,,319.8655858999118,319.8811889998615,320.364253600128,320.3656389997341,320.87921619974077,320.87921619974077,321.56226459983736,f,1,0.6763819996267557,None,320.38023559981957,,,,16,001,2025-02-12_16h10.27.063,3.2.  1.16 psyexp,2024.2.4,60.143212960936154,2025-02-12 16h10.34.393271 +0800,
2,j,186,2,23,j,1,0.5520429001189768,None,23,2,186,1,321.57800599979237,,,,,,321.5624497998506,321.57800599979237,322.07658110000193,322.077944399789,322.5754492999986,322.5754492999986,323.14195550000295,j,1,0.5520429001189768,None,,,,,16,001,2025-02-12_16h10.27.063,3.2.  1.16 psyexp,2024.2.4,60.143212960936154,2025-02-12 16h10.34.393271 +0800,
1,j,187,3,23,j,1,0.518008999992162,None,23,3,187,0,323.15794549975544,,,,,,323.1421107999049,323.15794549975544,323.65650240005925,323.65828790003434,324.1555145001039,324.1555145001039,324.688811799977,j,1,0.518008999992162,None,,,,,16,001,2025-02-12_16h10.27.063,3.2.  1.16 psyexp,2024.2.4,60.143212960936154,2025-02-12 16h10.34.393271 +0800,
9,f,188,4,23,f,1,0.5743151996284723,None,23,4,188,7,324.70444880006835,,,,,,324.6889482997358,324.70444880006835,325.20326119987294,325.2048363997601,325.70206000003964,325.70206000003964,326.28527540015057,f,1,0.5743151996284723,None,,,,,16,001,2025-02-12_16h10.27.063,3.2.  1.16 psyexp,2024.2.4,60.143212960936154,2025-02-12 16h10.34.393271 +0800,
3,j,189,5,23,j,1,0.5481671998277307,None,23,5,189,2,326.30114089976996,,,,,,326.28543129982427,326.30114089976996,326.79979069996625,326.8011464998126,327.2989219999872,327.2989219999872,327.8490462000482,j,1,0.5481671998277307,None,,,,,16,001,2025-02-12_16h10.27.063,3.2.  1.16 psyexp,2024.2.4,60.143212960936154,2025-02-12 16h10.34.393271 +0800,
6,f,190,6,23,f,1,0.7673503002151847,None,23,6,190,4,327.86416650004685,,,,,,327.84918359993026,327.86416650004685,328.34718849975616,328.3488130001351,328.8621784998104,328.8621784998104,329.64501999970526,f,1,0.7673503002151847,None,328.36322990013286,,,,16,001,2025-02-12_16h10.27.063,3.2.  1.16 psyexp,2024.2.4,60.143212960936154,2025-02-12 16h10.34.393271 +0800,
8,f,191,7,23,f,1,0.6083994996733963,None,23,7,191,6,329.66046970011666,,,,,,329.64515310013667,329.66046970011666,330.1433660001494,330.14484209986404,330.6581621998921,330.6581621998921,331.2744348999113,f,1,0.6083994996733963,None,330.15935260010883,,,,16,001,2025-02-12_16h10.27.063,3.2.  1.16 psyexp,2024.2.4,60.143212960936154,2025-02-12 16h10.34.393271 +0800,
6,f,192,0,24,f,1,0.6230335999280214,None,24,0,192,4,331.29022530000657,,,,,,331.2745749996975,331.29022530000657,331.7892279997468,331.7906542001292,332.28822880005464,332.28822880005464,332.9211872997694,f,1,0.6230335999280214,None,,,,,16,001,2025-02-12_16h10.27.063,3.2.  1.16 psyexp,2024.2.4,60.143212960936154,2025-02-12 16h10.34.393271 +0800,
4,j,193,1,24,j,1,0.6372119998559356,None,24,1,193,3,332.93675970006734,,,,,,332.9213419998996,332.93675970006734,333.4358167001046,333.4374222001061,333.9345645001158,333.9345645001158,334.58418649993837,j,1,0.6372119998559356,None,,,,,16,001,2025-02-12_16h10.27.063,3.2.  1.16 psyexp,2024.2.4,60.143212960936154,2025-02-12 16h10.34.393271 +0800,
1,j,194,2,24,j,1,0.5552129996940494,None,24,2,194,0,334.59974859980866,,,,,,334.5843309997581,334.59974859980866,335.09895019978285,335.100427699741,335.5975552997552,335.5975552997552,336.16393889999017,j,1,0.5552129996940494,None,,,,,16,001,2025-02-12_16h10.27.063,3.2.  1.16 psyexp,2024.2.4,60.143212960936154,2025-02-12 16h10.34.393271 +0800,
7,f,195,3,24,j,0,0.5584568995982409,None,24,3,195,5,336.17982879979536,,,,,,336.1640750998631,336.17982879979536,336.6626744000241,336.6643598997034,337.177790899761,337.177790899761,337.74414670001715,j,0,0.5584568995982409,None,336.67879549972713,,,,16,001,2025-02-12_16h10.27.063,3.2.  1.16 psyexp,2024.2.4,60.143212960936154,2025-02-12 16h10.34.393271 +0800,
3,j,196,4,24,j,1,0.6214529001154006,None,24,4,196,2,337.759799499996,,,,,,337.7442892999388,337.759799499996,338.2589030000381,338.26020530005917,338.7578149000183,338.7578149000183,339.39053850015625,j,1,0.6214529001154006,None,,,,,16,001,2025-02-12_16h10.27.063,3.2.  1.16 psyexp,2024.2.4,60.143212960936154,2025-02-12 16h10.34.393271 +0800,
9,f,197,5,24,f,1,0.9183256002143025,None,24,5,197,7,339.4061945001595,,,,,,339.39067659992725,339.4061945001595,339.88913800008595,339.89074259996414,340.4042311999947,340.4042311999947,341.33649459993467,f,1,0.9183256002143025,None,339.90529179992154,,,,16,001,2025-02-12_16h10.27.063,3.2.  1.16 psyexp,2024.2.4,60.143212960936154,2025-02-12 16h10.34.393271 +0800,
2,j,198,6,24,j,1,0.5194689999334514,None,24,6,198,1,341.35210780007765,,,,,,341.3366395998746,341.35210780007765,341.851198699791,341.85252399975434,342.34993699984625,342.34993699984625,342.88328449986875,j,1,0.5194689999334514,None,,,,,16,001,2025-02-12_16h10.27.063,3.2.  1.16 psyexp,2024.2.4,60.143212960936154,2025-02-12 16h10.34.393271 +0800,
8,f,199,7,24,f,1,0.6492948001250625,None,24,7,199,6,342.89874760014936,,,,,,342.883442199789,342.89874760014936,343.3816017997451,343.3829369000159,343.8967291000299,343.8967291000299,344.56320049986243,f,1,0.6492948001250625,None,343.39765729987994,,,,16,001,2025-02-12_16h10.27.063,3.2.  1.16 psyexp,2024.2.4,60.143212960936154,2025-02-12 16h10.34.393271 +0800,
,,,,,,,,,,,,,,,,,,,,,,,,,,,,,,,344.5633573997766,344.5784994997084,345.576542200055,16,001,2025-02-12_16h10.27.063,3.2.  1.16 psyexp,2024.2.4,60.143212960936154,2025-02-12 16h10.34.393271 +0800,
