number,corrAns,thisN,thisTrialN,thisRepN,key_resp.keys,key_resp.corr,key_resp.rt,key_resp.duration,trials.thisRepN,trials.thisTrialN,trials.thisN,trials.thisIndex,thisRow.t,notes,inst.started,instructions.started,ready.started,inst.stopped,fixation.started,fix.started,fixation.stopped,sti.started,text.started,key_resp.started,sti.stopped,trials.key_resp.keys,trials.key_resp.corr,trials.key_resp.rt,trials.key_resp.duration,fix.stopped,End.started,endding.started,End.stopped,participant,session,date,expName,psychopyVersion,frameRate,expStart,
,,,,,,,,,,,,,,,0.00379170011729002,0.010819400195032358,0.010819400195032358,4.306847000028938,,,,,,,,,,,,,,,,16,002,2025-02-12_16h56.00.585,3.2.  1.16 psyexp,2024.2.4,60.12050547891787,2025-02-12 16h56.09.052354 +0800,
9,f,0,0,0,f,1,0.8333065998740494,None,0,0,0,7,4.3195821000263095,,,,,,4.313300400041044,4.3195821000263095,4.817114100325853,4.820130500011146,5.316229100339115,5.316229100339115,6.165945200249553,f,1,0.8333065998740494,None,,,,,16,002,2025-02-12_16h56.00.585,3.2.  1.16 psyexp,2024.2.4,60.12050547891787,2025-02-12 16h56.09.052354 +0800,
2,j,1,1,0,j,1,1.8722910997457802,None,0,1,1,1,6.1851029000245035,,,,,,6.166080100461841,6.1851029000245035,6.680302300024778,6.683070900384337,7.179418500047177,7.179418500047177,9.059383600018919,j,1,1.8722910997457802,None,,,,,16,002,2025-02-12_16h56.00.585,3.2.  1.16 psyexp,2024.2.4,60.12050547891787,2025-02-12 16h56.09.052354 +0800,
3,j,2,2,0,j,1,0.5855898000299931,None,0,2,2,2,9.074804300442338,,,,,,9.05953810038045,9.074804300442338,9.557676900178194,9.560389700345695,10.072795600164682,10.072795600164682,10.672361800447106,j,1,0.5855898000299931,None,9.573922200128436,,,,16,002,2025-02-12_16h56.00.585,3.2.  1.16 psyexp,2024.2.4,60.12050547891787,2025-02-12 16h56.09.052354 +0800,
1,j,3,3,0,j,1,0.43959790002554655,None,0,3,3,0,10.688063600100577,,,,,,10.67250580014661,10.688063600100577,11.171054200269282,11.173750300426036,11.685925900004804,11.685925900004804,12.136132600251585,j,1,0.43959790002554655,None,11.187189300078899,,,,16,002,2025-02-12_16h56.00.585,3.2.  1.16 psyexp,2024.2.4,60.12050547891787,2025-02-12 16h56.09.052354 +0800,
8,f,4,4,0,f,1,0.5177326002158225,None,0,4,4,6,12.151747000403702,,,,,,12.136298300232738,12.151747000403702,12.63489400036633,12.637984500266612,13.149437100160867,13.149437100160867,13.683333900291473,f,1,0.5177326002158225,None,12.650596500374377,,,,16,002,2025-02-12_16h56.00.585,3.2.  1.16 psyexp,2024.2.4,60.12050547891787,2025-02-12 16h56.09.052354 +0800,
4,j,5,5,0,j,1,0.5389116001315415,None,0,5,5,3,13.698398600332439,,,,,,13.683468600269407,13.698398600332439,14.181293200235814,14.183880000375211,14.69711760012433,14.69711760012433,15.246076800394803,j,1,0.5389116001315415,None,14.197434700094163,,,,16,002,2025-02-12_16h56.00.585,3.2.  1.16 psyexp,2024.2.4,60.12050547891787,2025-02-12 16h56.09.052354 +0800,
7,f,6,6,0,f,1,0.42646139999851584,None,0,6,6,5,15.261590600013733,,,,,,15.24622210022062,15.261590600013733,15.744596500415355,15.747577900066972,16.259597100317478,16.259597100317478,16.692746700253338,f,1,0.42646139999851584,None,15.760603400412947,,,,16,002,2025-02-12_16h56.00.585,3.2.  1.16 psyexp,2024.2.4,60.12050547891787,2025-02-12 16h56.09.052354 +0800,
6,f,7,7,0,j,0,0.4983764998614788,None,0,7,7,4,16.708490800112486,,,,,,16.692898700013757,16.708490800112486,17.192588600330055,17.195609300397336,17.706615600269288,17.706615600269288,18.20744280004874,j,0,0.4983764998614788,None,17.20766990026459,,,,16,002,2025-02-12_16h56.00.585,3.2.  1.16 psyexp,2024.2.4,60.12050547891787,2025-02-12 16h56.09.052354 +0800,
8,f,8,0,1,f,1,0.6685259998776019,None,1,0,8,6,18.221968700177968,,,,,,18.207579400390387,18.221968700177968,18.705061500426382,18.7063946002163,19.219905000180006,19.219905000180006,19.902609100099653,f,1,0.6685259998776019,None,18.72085660044104,,,,16,002,2025-02-12_16h56.00.585,3.2.  1.16 psyexp,2024.2.4,60.12050547891787,2025-02-12 16h56.09.052354 +0800,
6,f,9,1,1,f,1,0.46948409965261817,None,1,1,9,4,19.918336300179362,,,,,,19.90275920042768,19.918336300179362,20.417272600345314,20.41864850046113,20.916201800107956,20.916201800107956,21.399734700098634,f,1,0.46948409965261817,None,,,,,16,002,2025-02-12_16h56.00.585,3.2.  1.16 psyexp,2024.2.4,60.12050547891787,2025-02-12 16h56.09.052354 +0800,
4,j,10,2,1,j,1,0.4873615000396967,None,1,2,10,3,21.41510930005461,,,,,,21.399869400076568,21.41510930005461,21.914129900280386,21.915471200365573,22.413087600376457,22.413087600376457,22.913144500460476,j,1,0.4873615000396967,None,,,,,16,002,2025-02-12_16h56.00.585,3.2.  1.16 psyexp,2024.2.4,60.12050547891787,2025-02-12 16h56.09.052354 +0800,
1,j,11,3,1,j,1,0.43678609980270267,None,1,3,11,0,22.928674900438637,,,,,,22.913331900257617,22.928674900438637,23.427610400132835,23.42908710008487,23.926557600032538,23.926557600032538,24.376556900329888,j,1,0.43678609980270267,None,,,,,16,002,2025-02-12_16h56.00.585,3.2.  1.16 psyexp,2024.2.4,60.12050547891787,2025-02-12 16h56.09.052354 +0800,
9,f,12,4,1,f,1,0.5436876998282969,None,1,4,12,7,24.392261600121856,,,,,,24.376722500193864,24.392261600121856,24.891139500308782,24.892816100269556,25.39007340045646,25.39007340045646,25.939961600117385,f,1,0.5436876998282969,None,,,,,16,002,2025-02-12_16h56.00.585,3.2.  1.16 psyexp,2024.2.4,60.12050547891787,2025-02-12 16h56.09.052354 +0800,
2,j,13,5,1,j,1,0.5046215001493692,None,1,5,13,1,25.95570380007848,,,,,,25.940130000002682,25.95570380007848,26.454490900039673,26.45583810005337,26.953405800275505,26.953405800275505,27.469861600082368,j,1,0.5046215001493692,None,,,,,16,002,2025-02-12_16h56.00.585,3.2.  1.16 psyexp,2024.2.4,60.12050547891787,2025-02-12 16h56.09.052354 +0800,
7,f,14,6,1,f,1,0.6564056002534926,None,1,6,14,5,27.485413300339133,,,,,,27.47000900004059,27.485413300339133,27.96850090008229,27.969838600140065,28.483521700371057,28.483521700371057,29.14985610032454,f,1,0.6564056002534926,None,27.984670500271022,,,,16,002,2025-02-12_16h56.00.585,3.2.  1.16 psyexp,2024.2.4,60.12050547891787,2025-02-12 16h56.09.052354 +0800,
3,j,15,7,1,j,1,0.46940760035067797,None,1,7,15,2,29.16530800005421,,,,,,29.15000620018691,29.16530800005421,29.64849180029705,29.64983110036701,30.163306600414217,30.163306600414217,30.646414500195533,j,1,0.46940760035067797,None,29.66436760034412,,,,16,002,2025-02-12_16h56.00.585,3.2.  1.16 psyexp,2024.2.4,60.12050547891787,2025-02-12 16h56.09.052354 +0800,
2,j,16,0,2,j,1,0.602473100181669,None,2,0,16,1,30.66237880010158,,,,,,30.64656630018726,30.66237880010158,31.161154800094664,31.162604600191116,31.66017200006172,31.66017200006172,32.277663400396705,j,1,0.602473100181669,None,,,,,16,002,2025-02-12_16h56.00.585,3.2.  1.16 psyexp,2024.2.4,60.12050547891787,2025-02-12 16h56.09.052354 +0800,
7,f,17,1,2,f,1,0.5272049000486732,None,2,1,17,5,32.29198580002412,,,,,,32.27781430026516,32.29198580002412,32.7911725002341,32.79271930037066,33.290250200312585,33.290250200312585,33.82313090004027,f,1,0.5272049000486732,None,,,,,16,002,2025-02-12_16h56.00.585,3.2.  1.16 psyexp,2024.2.4,60.12050547891787,2025-02-12 16h56.09.052354 +0800,
3,j,18,2,2,j,1,0.6586087001487613,None,2,2,18,2,33.838921000249684,,,,,,33.82327690022066,33.838921000249684,34.33766160020605,34.339026000350714,34.83694460010156,34.83694460010156,35.502725100144744,j,1,0.6586087001487613,None,,,,,16,002,2025-02-12_16h56.00.585,3.2.  1.16 psyexp,2024.2.4,60.12050547891787,2025-02-12 16h56.09.052354 +0800,
1,j,19,3,2,j,1,0.621246200054884,None,2,3,19,0,35.518550800159574,,,,,,35.502904100343585,35.518550800159574,36.017580000218004,36.01912390021607,36.5163974002935,36.5163974002935,37.14918450033292,j,1,0.621246200054884,None,,,,,16,002,2025-02-12_16h56.00.585,3.2.  1.16 psyexp,2024.2.4,60.12050547891787,2025-02-12 16h56.09.052354 +0800,
6,f,20,4,2,f,1,0.49842229997739196,None,2,4,20,4,37.16477380041033,,,,,,37.14934440003708,37.16477380041033,37.647869100328535,37.649629400111735,38.16283100005239,38.16283100005239,38.66289080027491,f,1,0.49842229997739196,None,37.66381450043991,,,,16,002,2025-02-12_16h56.00.585,3.2.  1.16 psyexp,2024.2.4,60.12050547891787,2025-02-12 16h56.09.052354 +0800,
8,f,21,5,2,f,1,0.5215398999862373,None,2,5,21,6,38.678177300374955,,,,,,38.663035600446165,38.678177300374955,39.162106700241566,39.16491010040045,39.67640900006518,39.67640900006518,40.20946510042995,f,1,0.5215398999862373,None,39.19097530003637,,,,16,002,2025-02-12_16h56.00.585,3.2.  1.16 psyexp,2024.2.4,60.12050547891787,2025-02-12 16h56.09.052354 +0800,
4,j,22,6,2,j,1,0.4419161998666823,None,2,6,22,3,40.22511740028858,,,,,,40.209612500388175,40.22511740028858,40.72407010011375,40.72553830035031,41.22309360001236,41.22309360001236,41.672907300293446,j,1,0.4419161998666823,None,,,,,16,002,2025-02-12_16h56.00.585,3.2.  1.16 psyexp,2024.2.4,60.12050547891787,2025-02-12 16h56.09.052354 +0800,
9,f,23,7,2,f,1,0.48087979992851615,None,2,7,23,7,41.688840200193226,,,,,,41.673062400426716,41.688840200193226,42.18781470041722,42.18938530003652,42.68671000003815,42.68671000003815,43.17005920037627,f,1,0.48087979992851615,None,,,,,16,002,2025-02-12_16h56.00.585,3.2.  1.16 psyexp,2024.2.4,60.12050547891787,2025-02-12 16h56.09.052354 +0800,
2,j,24,0,3,j,1,0.4253337997943163,None,3,0,24,1,43.18550390005112,,,,,,43.17022870015353,43.18550390005112,43.68450620025396,43.685849600005895,44.18321350030601,44.18321350030601,44.6166691002436,j,1,0.4253337997943163,None,,,,,16,002,2025-02-12_16h56.00.585,3.2.  1.16 psyexp,2024.2.4,60.12050547891787,2025-02-12 16h56.09.052354 +0800,
6,f,25,1,3,f,1,0.6423659999854863,None,3,1,25,4,44.632423100061715,,,,,,44.61682490026578,44.632423100061715,45.131399400066584,45.132743400055915,45.63023140002042,45.63023140002042,46.279990000184625,f,1,0.6423659999854863,None,,,,,16,002,2025-02-12_16h56.00.585,3.2.  1.16 psyexp,2024.2.4,60.12050547891787,2025-02-12 16h56.09.052354 +0800,
7,f,26,2,3,f,1,0.8536654999479651,None,3,2,26,5,46.29549860022962,,,,,,46.28014160040766,46.29549860022962,46.79431250039488,46.79565480025485,47.29334840038791,47.29334840038791,48.159166800323874,f,1,0.8536654999479651,None,,,,,16,002,2025-02-12_16h56.00.585,3.2.  1.16 psyexp,2024.2.4,60.12050547891787,2025-02-12 16h56.09.052354 +0800,
3,j,27,3,3,j,1,0.4730070000514388,None,3,3,27,2,48.17477390030399,,,,,,48.15931640006602,48.17477390030399,48.67382450029254,48.67515950044617,49.172875500284135,49.172875500284135,49.65590720018372,j,1,0.4730070000514388,None,,,,,16,002,2025-02-12_16h56.00.585,3.2.  1.16 psyexp,2024.2.4,60.12050547891787,2025-02-12 16h56.09.052354 +0800,
8,f,28,4,3,f,1,0.45430639991536736,None,3,4,28,6,49.67154320003465,,,,,,49.656051700003445,49.67154320003465,50.15440920041874,50.156060200184584,50.669924000278115,50.669924000278115,51.136005400214344,f,1,0.45430639991536736,None,50.170594200026244,,,,16,002,2025-02-12_16h56.00.585,3.2.  1.16 psyexp,2024.2.4,60.12050547891787,2025-02-12 16h56.09.052354 +0800,
9,f,29,5,3,f,1,0.44564890023320913,None,3,5,29,7,51.15166380023584,,,,,,51.13616540003568,51.15166380023584,51.6347698001191,51.63609620044008,52.14973000017926,52.14973000017926,52.599552700296044,f,1,0.44564890023320913,None,51.65072080027312,,,,16,002,2025-02-12_16h56.00.585,3.2.  1.16 psyexp,2024.2.4,60.12050547891787,2025-02-12 16h56.09.052354 +0800,
1,j,30,6,3,j,1,0.4588617002591491,None,3,6,30,0,52.615397800225765,,,,,,52.599690300412476,52.615397800225765,53.11416650004685,53.11554730031639,53.613186500035226,53.613186500035226,54.08002460002899,j,1,0.4588617002591491,None,,,,,16,002,2025-02-12_16h56.00.585,3.2.  1.16 psyexp,2024.2.4,60.12050547891787,2025-02-12 16h56.09.052354 +0800,
4,j,31,7,3,j,1,0.7870384999550879,None,3,7,31,3,54.095629300456494,,,,,,54.080185000319034,54.095629300456494,54.59458770044148,54.59598260000348,55.093433500267565,55.093433500267565,55.89271490043029,j,1,0.7870384999550879,None,,,,,16,002,2025-02-12_16h56.00.585,3.2.  1.16 psyexp,2024.2.4,60.12050547891787,2025-02-12 16h56.09.052354 +0800,
1,j,32,0,4,f,0,0.5432497002184391,None,4,0,32,0,55.90844860021025,,,,,,55.892875500023365,55.90844860021025,56.407291900366545,56.408635600004345,56.906178400386125,56.906178400386125,57.45598030043766,f,0,0.5432497002184391,None,,,,,16,002,2025-02-12_16h56.00.585,3.2.  1.16 psyexp,2024.2.4,60.12050547891787,2025-02-12 16h56.09.052354 +0800,
8,f,33,1,4,f,1,0.6930124000646174,None,4,1,33,6,57.471777100116014,,,,,,57.45612290035933,57.471777100116014,57.97059930022806,57.971966500394046,58.46961310040206,58.46961310040206,59.16929640015587,f,1,0.6930124000646174,None,,,,,16,002,2025-02-12_16h56.00.585,3.2.  1.16 psyexp,2024.2.4,60.12050547891787,2025-02-12 16h56.09.052354 +0800,
9,f,34,2,4,f,1,0.4913993999361992,None,4,2,34,7,59.18479570001364,,,,,,59.16946540027857,59.18479570001364,59.683888600207865,59.68523310031742,60.18281860044226,60.18281860044226,60.682637800462544,f,1,0.4913993999361992,None,,,,,16,002,2025-02-12_16h56.00.585,3.2.  1.16 psyexp,2024.2.4,60.12050547891787,2025-02-12 16h56.09.052354 +0800,
2,j,35,3,4,j,1,0.5133588002063334,None,4,3,35,1,60.69800910027698,,,,,,60.68278310028836,60.69800910027698,61.1809344002977,61.18224700028077,61.696367600001395,61.696367600001395,62.21264380030334,j,1,0.5133588002063334,None,61.196998100262135,,,,16,002,2025-02-12_16h56.00.585,3.2.  1.16 psyexp,2024.2.4,60.12050547891787,2025-02-12 16h56.09.052354 +0800,
6,f,36,4,4,f,1,0.604757399763912,None,4,4,36,4,62.228260500356555,,,,,,62.21281150029972,62.228260500356555,62.727391000371426,62.72930030012503,63.22619490046054,63.22619490046054,63.84252300020307,f,1,0.604757399763912,None,,,,,16,002,2025-02-12_16h56.00.585,3.2.  1.16 psyexp,2024.2.4,60.12050547891787,2025-02-12 16h56.09.052354 +0800,
4,j,37,5,4,j,1,0.5949169998057187,None,4,5,37,3,63.858134200330824,,,,,,63.84268240025267,63.858134200330824,64.34144430002198,64.34288240037858,64.85597560042515,64.85597560042515,65.45576460007578,j,1,0.5949169998057187,None,64.3572574001737,,,,16,002,2025-02-12_16h56.00.585,3.2.  1.16 psyexp,2024.2.4,60.12050547891787,2025-02-12 16h56.09.052354 +0800,
3,j,38,6,4,j,1,0.5715741999447346,None,4,6,38,2,65.47132950043306,,,,,,65.45591710042208,65.47132950043306,65.9702378003858,65.97165930038318,66.46925800014287,66.46925800014287,67.05210350034758,j,1,0.5715741999447346,None,,,,,16,002,2025-02-12_16h56.00.585,3.2.  1.16 psyexp,2024.2.4,60.12050547891787,2025-02-12 16h56.09.052354 +0800,
7,f,39,7,4,f,1,1.15595080005005,None,4,7,39,5,67.06780830025673,,,,,,67.05225710012019,67.06780830025673,67.55075250007212,67.55216230032966,68.06588250026107,68.06588250026107,69.23173520015553,f,1,1.15595080005005,None,67.56683780020103,,,,16,002,2025-02-12_16h56.00.585,3.2.  1.16 psyexp,2024.2.4,60.12050547891787,2025-02-12 16h56.09.052354 +0800,
2,j,40,0,5,j,1,0.5892350003123283,None,5,0,40,1,69.24665820039809,,,,,,69.231903700158,69.24665820039809,69.74556480022147,69.74691720027477,70.24461140017956,70.24461140017956,70.84410890005529,j,1,0.5892350003123283,None,,,,,16,002,2025-02-12_16h56.00.585,3.2.  1.16 psyexp,2024.2.4,60.12050547891787,2025-02-12 16h56.09.052354 +0800,
3,j,41,1,5,j,1,0.526355900336057,None,5,1,41,2,70.85985840018839,,,,,,70.8442681003362,70.85985840018839,71.34305180003867,71.3444499000907,71.85753440018743,71.85753440018743,72.39089200040326,j,1,0.526355900336057,None,71.35874730022624,,,,16,002,2025-02-12_16h56.00.585,3.2.  1.16 psyexp,2024.2.4,60.12050547891787,2025-02-12 16h56.09.052354 +0800,
6,f,42,2,5,f,1,0.5861908998340368,None,5,2,42,4,72.40653230017051,,,,,,72.39103560009971,72.40653230017051,72.90526250004768,72.90661930013448,73.40431050024927,73.40431050024927,74.00426230020821,f,1,0.5861908998340368,None,,,,,16,002,2025-02-12_16h56.00.585,3.2.  1.16 psyexp,2024.2.4,60.12050547891787,2025-02-12 16h56.09.052354 +0800,
9,f,43,3,5,f,1,0.5272510000504553,None,5,3,43,7,74.01978270011023,,,,,,74.00444580009207,74.01978270011023,74.50278220046312,74.5041400003247,75.01777970045805,75.01777970045805,75.550915800035,f,1,0.5272510000504553,None,74.51881910022348,,,,16,002,2025-02-12_16h56.00.585,3.2.  1.16 psyexp,2024.2.4,60.12050547891787,2025-02-12 16h56.09.052354 +0800,
8,f,44,4,5,f,1,0.5087541001848876,None,5,4,44,6,75.56635620025918,,,,,,75.5510595003143,75.56635620025918,76.06546680023894,76.06724610039964,76.5644512004219,76.5644512004219,77.08109510038048,f,1,0.5087541001848876,None,,,,,16,002,2025-02-12_16h56.00.585,3.2.  1.16 psyexp,2024.2.4,60.12050547891787,2025-02-12 16h56.09.052354 +0800,
4,j,45,5,5,j,1,0.49936800030991435,None,5,5,45,3,77.09667940018699,,,,,,77.08127380022779,77.09667940018699,77.59549560025334,77.59711060021073,78.09467440005392,78.09467440005392,78.61120800022036,j,1,0.49936800030991435,None,,,,,16,002,2025-02-12_16h56.00.585,3.2.  1.16 psyexp,2024.2.4,60.12050547891787,2025-02-12 16h56.09.052354 +0800,
7,f,46,6,5,f,1,0.5185893997550011,None,5,6,46,5,78.62722230004147,,,,,,78.6113471002318,78.62722230004147,79.12562620034441,79.12710320018232,79.62466760026291,79.62466760026291,80.15744000021368,f,1,0.5185893997550011,None,,,,,16,002,2025-02-12_16h56.00.585,3.2.  1.16 psyexp,2024.2.4,60.12050547891787,2025-02-12 16h56.09.052354 +0800,
1,j,47,7,5,j,1,0.45574190001934767,None,5,7,47,0,80.17347410041839,,,,,,80.15758220013231,80.17347410041839,80.67223180038854,80.67372040031478,81.17129460023716,81.17129460023716,81.6379157002084,j,1,0.45574190001934767,None,,,,,16,002,2025-02-12_16h56.00.585,3.2.  1.16 psyexp,2024.2.4,60.12050547891787,2025-02-12 16h56.09.052354 +0800,
8,f,48,0,6,f,1,0.4891476999036968,None,6,0,48,6,81.6534354002215,,,,,,81.63806020002812,81.6534354002215,82.13644660031423,82.13802870037034,82.65160820027813,82.65160820027813,83.15168400015682,f,1,0.4891476999036968,None,82.15266080014408,,,,16,002,2025-02-12_16h56.00.585,3.2.  1.16 psyexp,2024.2.4,60.12050547891787,2025-02-12 16h56.09.052354 +0800,
6,f,49,1,6,f,1,0.9659791998565197,None,6,1,49,4,83.1669650003314,,,,,,83.15185030037537,83.1669650003314,83.64992100000381,83.65132270008326,84.16482630046085,84.16482630046085,85.1472741002217,f,1,0.9659791998565197,None,83.66575430007651,,,,16,002,2025-02-12_16h56.00.585,3.2.  1.16 psyexp,2024.2.4,60.12050547891787,2025-02-12 16h56.09.052354 +0800,
3,j,50,2,6,f,0,0.44616950023919344,None,6,2,50,2,85.16256110044196,,,,,,85.14740580040962,85.16256110044196,85.64593670004979,85.64728400018066,86.16042050020769,86.16042050020769,86.61050220020115,f,0,0.44616950023919344,None,85.66160770040005,,,,16,002,2025-02-12_16h56.00.585,3.2.  1.16 psyexp,2024.2.4,60.12050547891787,2025-02-12 16h56.09.052354 +0800,
9,f,51,3,6,f,1,0.574654399883002,None,6,3,51,7,86.62641210015863,,,,,,86.61064590001479,86.62641210015863,87.12510490044951,87.12650770042092,87.62420530011877,87.62420530011877,88.20833620009944,f,1,0.574654399883002,None,,,,,16,002,2025-02-12_16h56.00.585,3.2.  1.16 psyexp,2024.2.4,60.12050547891787,2025-02-12 16h56.09.052354 +0800,
7,f,52,4,6,f,1,0.6035526003688574,None,6,4,52,5,88.22282800031826,,,,,,88.20847020018846,88.22282800031826,88.70585130015388,88.7074075001292,89.22076550032943,89.22076550032943,89.83700470020995,f,1,0.6035526003688574,None,88.72200060030445,,,,16,002,2025-02-12_16h56.00.585,3.2.  1.16 psyexp,2024.2.4,60.12050547891787,2025-02-12 16h56.09.052354 +0800,
2,j,53,5,6,j,1,0.49202309967949986,None,6,5,53,1,89.85272070020437,,,,,,89.83719270024449,89.85272070020437,90.35178470006213,90.35331700043753,90.85061990004033,90.85061990004033,91.35061280010268,j,1,0.49202309967949986,None,,,,,16,002,2025-02-12_16h56.00.585,3.2.  1.16 psyexp,2024.2.4,60.12050547891787,2025-02-12 16h56.09.052354 +0800,
4,j,54,6,6,j,1,0.5851552998647094,None,6,6,54,3,91.36647000024095,,,,,,91.35077720042318,91.36647000024095,91.86504650022835,91.8663904001005,92.36444160016254,92.36444160016254,92.96375130023807,j,1,0.5851552998647094,None,,,,,16,002,2025-02-12_16h56.00.585,3.2.  1.16 psyexp,2024.2.4,60.12050547891787,2025-02-12 16h56.09.052354 +0800,
1,j,55,7,6,j,1,0.4865756002254784,None,6,7,55,0,92.97953740041703,,,,,,92.96390110021457,92.97953740041703,93.47838760027662,93.47969590034336,93.97765220003203,93.97765220003203,94.47760580014437,j,1,0.4865756002254784,None,,,,,16,002,2025-02-12_16h56.00.585,3.2.  1.16 psyexp,2024.2.4,60.12050547891787,2025-02-12 16h56.09.052354 +0800,
9,f,56,0,7,f,1,0.5720850001089275,None,7,0,56,7,94.49286350002512,,,,,,94.4777434002608,94.49286350002512,94.9757401002571,94.97709620045498,95.49067260045558,95.49067260045558,96.07378330035135,f,1,0.5720850001089275,None,94.99182280013338,,,,16,002,2025-02-12_16h56.00.585,3.2.  1.16 psyexp,2024.2.4,60.12050547891787,2025-02-12 16h56.09.052354 +0800,
2,j,57,1,7,j,1,0.4396983999758959,None,7,1,57,1,96.089562300127,,,,,,96.07396280020475,96.089562300127,96.58823110023513,96.58961090026423,97.08734490023926,97.08734490023926,97.53711440041661,j,1,0.4396983999758959,None,,,,,16,002,2025-02-12_16h56.00.585,3.2.  1.16 psyexp,2024.2.4,60.12050547891787,2025-02-12 16h56.09.052354 +0800,
4,j,58,2,7,j,1,0.49154660012573004,None,7,2,58,3,97.55310850031674,,,,,,97.53725200006738,97.55310850031674,98.05189450038597,98.05362560041249,98.55079850042239,98.55079850042239,99.05077470000833,j,1,0.49154660012573004,None,,,,,16,002,2025-02-12_16h56.00.585,3.2.  1.16 psyexp,2024.2.4,60.12050547891787,2025-02-12 16h56.09.052354 +0800,
6,f,59,3,7,f,1,0.5734403999522328,None,7,3,59,4,99.06628090003505,,,,,,99.05093580018729,99.06628090003505,99.56535690044984,99.56674110004678,100.06428800011054,100.06428800011054,100.64743300015107,f,1,0.5734403999522328,None,,,,,16,002,2025-02-12_16h56.00.585,3.2.  1.16 psyexp,2024.2.4,60.12050547891787,2025-02-12 16h56.09.052354 +0800,
1,j,60,4,7,j,1,0.44507590029388666,None,7,4,60,0,100.66305800015107,,,,,,100.64758740039542,100.66305800015107,101.1459499001503,101.14814610034227,101.66091470001265,101.66091470001265,102.11106690019369,j,1,0.44507590029388666,None,101.16234180005267,,,,16,002,2025-02-12_16h56.00.585,3.2.  1.16 psyexp,2024.2.4,60.12050547891787,2025-02-12 16h56.09.052354 +0800,
8,f,61,5,7,f,1,0.5760987000539899,None,7,5,61,6,102.12663070019335,,,,,,102.11123260017484,102.12663070019335,102.62577880034223,102.62733190041035,103.12438030028716,103.12438030028716,103.70771540002897,f,1,0.5760987000539899,None,,,,,16,002,2025-02-12_16h56.00.585,3.2.  1.16 psyexp,2024.2.4,60.12050547891787,2025-02-12 16h56.09.052354 +0800,
3,j,62,6,7,j,1,0.4109356999397278,None,7,6,62,2,103.72301610000432,,,,,,103.70786920003593,103.72301610000432,104.20592590002343,104.20730610005558,104.72111740009859,104.72111740009859,105.13817020040005,j,1,0.4109356999397278,None,104.22199230035767,,,,16,002,2025-02-12_16h56.00.585,3.2.  1.16 psyexp,2024.2.4,60.12050547891787,2025-02-12 16h56.09.052354 +0800,
7,f,63,7,7,j,0,0.47934089973568916,None,7,7,63,5,105.15352180041373,,,,,,105.1383480001241,105.15352180041373,105.6364847002551,105.63793300045654,106.15163770038635,106.15163770038635,106.63461250020191,j,0,0.47934089973568916,None,105.65224130032584,,,,16,002,2025-02-12_16h56.00.585,3.2.  1.16 psyexp,2024.2.4,60.12050547891787,2025-02-12 16h56.09.052354 +0800,
2,j,64,0,8,j,1,0.5364767001010478,None,8,0,64,1,106.65024920040742,,,,,,106.63477470027283,106.65024920040742,107.14920690003783,107.15065130032599,107.648328400217,107.648328400217,108.19799610041082,j,1,0.5364767001010478,None,,,,,16,002,2025-02-12_16h56.00.585,3.2.  1.16 psyexp,2024.2.4,60.12050547891787,2025-02-12 16h56.09.052354 +0800,
4,j,65,1,8,j,1,0.4437010996043682,None,8,1,65,3,108.21374500030652,,,,,,108.1981586003676,108.21374500030652,108.6966367000714,108.69808590039611,109.21152010001242,109.21152010001242,109.66149620013312,j,1,0.4437010996043682,None,108.71257560001686,,,,16,002,2025-02-12_16h56.00.585,3.2.  1.16 psyexp,2024.2.4,60.12050547891787,2025-02-12 16h56.09.052354 +0800,
8,f,66,2,8,f,1,0.5254970998503268,None,8,2,66,6,109.67698710039258,,,,,,109.66164480010048,109.67698710039258,110.16007380001247,110.16154160024598,110.67551470035687,110.67551470035687,111.20810760045424,f,1,0.5254970998503268,None,110.17607190040872,,,,16,002,2025-02-12_16h56.00.585,3.2.  1.16 psyexp,2024.2.4,60.12050547891787,2025-02-12 16h56.09.052354 +0800,
3,j,67,3,8,j,1,0.4486503000371158,None,8,3,67,2,111.22384440014139,,,,,,111.20826930040494,111.22384440014139,111.72271610004827,111.7240816000849,112.22168930014595,112.22168930014595,112.6719044004567,j,1,0.4486503000371158,None,,,,,16,002,2025-02-12_16h56.00.585,3.2.  1.16 psyexp,2024.2.4,60.12050547891787,2025-02-12 16h56.09.052354 +0800,
9,f,68,4,8,f,1,0.5365480002947152,None,8,4,68,7,112.68744300026447,,,,,,112.67207070020959,112.68744300026447,113.18636310007423,113.23730020038784,113.68518430041149,113.68518430041149,114.23517950018868,f,1,0.5365480002947152,None,,,,,16,002,2025-02-12_16h56.00.585,3.2.  1.16 psyexp,2024.2.4,60.12050547891787,2025-02-12 16h56.09.052354 +0800,
6,f,69,5,8,f,1,0.6186648001894355,None,8,5,69,4,114.25060990033671,,,,,,114.23532150033861,114.25060990033671,114.74954800028354,114.75096080033109,115.24864620016888,115.24864620016888,115.88153060013428,f,1,0.6186648001894355,None,,,,,16,002,2025-02-12_16h56.00.585,3.2.  1.16 psyexp,2024.2.4,60.12050547891787,2025-02-12 16h56.09.052354 +0800,
1,j,70,6,8,j,1,0.4601422003470361,None,8,6,70,0,115.89714630041271,,,,,,115.88167330017313,115.89714630041271,116.39670560043305,116.39815740007907,116.89512480003759,116.89512480003759,117.36215910036117,j,1,0.4601422003470361,None,,,,,16,002,2025-02-12_16h56.00.585,3.2.  1.16 psyexp,2024.2.4,60.12050547891787,2025-02-12 16h56.09.052354 +0800,
7,f,71,7,8,f,1,0.6333799003623426,None,8,7,71,5,117.37735510012135,,,,,,117.36232480034232,117.37735510012135,117.86037690006196,117.86201890045777,118.3751577003859,118.3751577003859,119.02496300032362,f,1,0.6333799003623426,None,117.87672710046172,,,,16,002,2025-02-12_16h56.00.585,3.2.  1.16 psyexp,2024.2.4,60.12050547891787,2025-02-12 16h56.09.052354 +0800,
8,f,72,0,9,f,1,0.5006862999871373,None,9,0,72,6,119.04046090040356,,,,,,119.0251167002134,119.04046090040356,119.52353720040992,119.52488340018317,120.03845790028572,120.03845790028572,120.55510830041021,f,1,0.5006862999871373,None,119.53946170024574,,,,16,002,2025-02-12_16h56.00.585,3.2.  1.16 psyexp,2024.2.4,60.12050547891787,2025-02-12 16h56.09.052354 +0800,
4,j,73,1,9,j,1,0.5365261002443731,None,9,1,73,3,120.57057910040021,,,,,,120.5552522004582,120.57057910040021,121.06949040014297,121.0708446004428,121.56849250011146,121.56849250011146,122.11829610029235,j,1,0.5365261002443731,None,,,,,16,002,2025-02-12_16h56.00.585,3.2.  1.16 psyexp,2024.2.4,60.12050547891787,2025-02-12 16h56.09.052354 +0800,
7,f,74,2,9,f,1,0.5932638999074697,None,9,2,74,5,122.13410780020058,,,,,,122.11844300013036,122.13410780020058,122.63285460043699,122.63442370016128,123.13180690025911,123.13180690025911,123.73146050004289,f,1,0.5932638999074697,None,,,,,16,002,2025-02-12_16h56.00.585,3.2.  1.16 psyexp,2024.2.4,60.12050547891787,2025-02-12 16h56.09.052354 +0800,
3,j,75,3,9,j,1,0.5479582999832928,None,9,3,75,2,123.74703340046108,,,,,,123.73160660034046,123.74703340046108,124.22988760005683,124.2314083003439,124.74500450026244,124.74500450026244,125.29514980036765,j,1,0.5479582999832928,None,124.24602840002626,,,,16,002,2025-02-12_16h56.00.585,3.2.  1.16 psyexp,2024.2.4,60.12050547891787,2025-02-12 16h56.09.052354 +0800,
6,f,76,4,9,f,1,0.615023999940604,None,9,4,76,4,125.3105343002826,,,,,,125.29530570004135,125.3105343002826,125.80936810001731,125.81071930006146,126.30839530006051,126.30839530006051,126.92500889999792,f,1,0.615023999940604,None,,,,,16,002,2025-02-12_16h56.00.585,3.2.  1.16 psyexp,2024.2.4,60.12050547891787,2025-02-12 16h56.09.052354 +0800,
1,j,77,5,9,j,1,0.48273849999532104,None,9,5,77,0,126.940238900017,,,,,,126.92515610018745,126.940238900017,127.42341990023851,127.42510570026934,127.93826480023563,127.93826480023563,128.42232530005276,j,1,0.48273849999532104,None,127.43929840018973,,,,16,002,2025-02-12_16h56.00.585,3.2.  1.16 psyexp,2024.2.4,60.12050547891787,2025-02-12 16h56.09.052354 +0800,
9,f,78,6,9,f,1,0.5749373002909124,None,9,6,78,7,128.43707740027457,,,,,,128.42250930005684,128.43707740027457,128.9202102003619,128.92153720045462,129.43537960015237,129.43537960015237,130.01811850024387,f,1,0.5749373002909124,None,128.93604330020025,,,,16,002,2025-02-12_16h56.00.585,3.2.  1.16 psyexp,2024.2.4,60.12050547891787,2025-02-12 16h56.09.052354 +0800,
2,j,79,7,9,j,1,0.41560619976371527,None,9,7,79,1,130.03375780023634,,,,,,130.0182657004334,130.03375780023634,130.53268500044942,130.5340487002395,131.03170010028407,131.03170010028407,131.44908780045807,j,1,0.41560619976371527,None,,,,,16,002,2025-02-12_16h56.00.585,3.2.  1.16 psyexp,2024.2.4,60.12050547891787,2025-02-12 16h56.09.052354 +0800,
8,f,80,0,10,f,1,0.48441380029544234,None,10,0,80,6,131.4639898003079,,,,,,131.44935220014304,131.4639898003079,131.94687280012295,131.94836290040985,132.4617766002193,132.4617766002193,132.9618115001358,f,1,0.48441380029544234,None,131.96288840007037,,,,16,002,2025-02-12_16h56.00.585,3.2.  1.16 psyexp,2024.2.4,60.12050547891787,2025-02-12 16h56.09.052354 +0800,
2,j,81,1,10,j,1,0.4742152998223901,None,10,1,81,1,132.97718750033528,,,,,,132.96196230035275,132.97718750033528,133.46022570040077,133.4615810001269,133.97533860011026,133.97533860011026,134.4586323001422,j,1,0.4742152998223901,None,133.4762716004625,,,,16,002,2025-02-12_16h56.00.585,3.2.  1.16 psyexp,2024.2.4,60.12050547891787,2025-02-12 16h56.09.052354 +0800,
1,j,82,2,10,j,1,0.6649563000537455,None,10,2,82,0,134.4741867003031,,,,,,134.45877470029518,134.4741867003031,134.9571576002054,134.9591045002453,135.4723911001347,135.4723911001347,136.13833940029144,j,1,0.6649563000537455,None,134.97332110023126,,,,16,002,2025-02-12_16h56.00.585,3.2.  1.16 psyexp,2024.2.4,60.12050547891787,2025-02-12 16h56.09.052354 +0800,
4,j,83,3,10,j,1,0.5731902997940779,None,10,3,83,3,136.15394730027765,,,,,,136.13848790014163,136.15394730027765,136.65310510015115,136.65447210008278,137.151909600012,137.151909600012,137.7349681002088,j,1,0.5731902997940779,None,,,,,16,002,2025-02-12_16h56.00.585,3.2.  1.16 psyexp,2024.2.4,60.12050547891787,2025-02-12 16h56.09.052354 +0800,
6,f,84,4,10,f,1,0.6314238999038935,None,10,4,84,4,137.75058680027723,,,,,,137.7351083001122,137.75058680027723,138.23362800013274,138.23527070041746,138.74855960020795,138.74855960020795,139.38163600023836,f,1,0.6314238999038935,None,138.24991300003603,,,,16,002,2025-02-12_16h56.00.585,3.2.  1.16 psyexp,2024.2.4,60.12050547891787,2025-02-12 16h56.09.052354 +0800,
9,f,85,5,10,f,1,0.8470697999000549,None,10,5,85,7,139.39719170005992,,,,,,139.38179490016773,139.39719170005992,139.8960086000152,139.89734270004556,140.39508950011805,140.39508950011805,141.24443340022117,f,1,0.8470697999000549,None,,,,,16,002,2025-02-12_16h56.00.585,3.2.  1.16 psyexp,2024.2.4,60.12050547891787,2025-02-12 16h56.09.052354 +0800,
3,j,86,6,10,j,1,1.1439342997036874,None,10,6,86,2,141.26012910017744,,,,,,141.2445823000744,141.26012910017744,141.75873370002955,141.7600821000524,142.25789910042658,142.25789910042658,143.40613070037216,j,1,1.1439342997036874,None,,,,,16,002,2025-02-12_16h56.00.585,3.2.  1.16 psyexp,2024.2.4,60.12050547891787,2025-02-12 16h56.09.052354 +0800,
7,f,87,7,10,f,1,1.3063477999530733,None,10,7,87,5,143.422075800132,,,,,,143.4062802004628,143.422075800132,143.920707100071,143.92208000039682,144.4198115002364,144.4198115002364,145.73447410017252,f,1,1.3063477999530733,None,,,,,16,002,2025-02-12_16h56.00.585,3.2.  1.16 psyexp,2024.2.4,60.12050547891787,2025-02-12 16h56.09.052354 +0800,
4,j,88,0,11,j,1,0.7074628002010286,None,11,0,88,3,145.75032190000638,,,,,,145.7346173003316,145.75032190000638,146.24916660040617,146.2506358004175,146.74848040007055,146.74848040007055,147.46440170006827,j,1,0.7074628002010286,None,,,,,16,002,2025-02-12_16h56.00.585,3.2.  1.16 psyexp,2024.2.4,60.12050547891787,2025-02-12 16h56.09.052354 +0800,
3,j,89,1,11,j,1,0.5052932999096811,None,11,1,89,2,147.4800308002159,,,,,,147.46456160023808,147.4800308002159,147.97887600027025,147.9802422001958,148.47778210043907,148.47778210043907,148.99440480023623,j,1,0.5052932999096811,None,,,,,16,002,2025-02-12_16h56.00.585,3.2.  1.16 psyexp,2024.2.4,60.12050547891787,2025-02-12 16h56.09.052354 +0800,
2,j,90,2,11,j,1,0.5542580001056194,None,11,2,90,1,149.00980850029737,,,,,,148.99456540029496,149.00980850029737,149.49281860003248,149.49476490030065,150.00791640020907,150.00791640020907,150.57469540042803,j,1,0.5542580001056194,None,149.509002300445,,,,16,002,2025-02-12_16h56.00.585,3.2.  1.16 psyexp,2024.2.4,60.12050547891787,2025-02-12 16h56.09.052354 +0800,
7,f,91,3,11,f,1,0.5175242000259459,None,11,3,91,5,150.58998110005632,,,,,,150.57482660003006,150.58998110005632,151.08885310031474,151.09030340006575,151.58766650035977,151.58766650035977,152.12104260036722,f,1,0.5175242000259459,None,,,,,16,002,2025-02-12_16h56.00.585,3.2.  1.16 psyexp,2024.2.4,60.12050547891787,2025-02-12 16h56.09.052354 +0800,
1,j,92,4,11,j,1,0.5205274000763893,None,11,4,92,0,152.13649530010298,,,,,,152.12120540020987,152.13649530010298,152.6198359001428,152.62133100023493,153.13459100015461,153.13459100015461,153.66773280035704,j,1,0.5205274000763893,None,152.63560790009797,,,,16,002,2025-02-12_16h56.00.585,3.2.  1.16 psyexp,2024.2.4,60.12050547891787,2025-02-12 16h56.09.052354 +0800,
9,f,93,5,11,f,1,1.5558255002833903,None,11,5,93,7,153.68322950042784,,,,,,153.66790180001408,153.68322950042784,154.16674460005015,154.16825880017132,154.68157890019938,154.68157890019938,156.2458137003705,f,1,1.5558255002833903,None,154.1821602000855,,,,16,002,2025-02-12_16h56.00.585,3.2.  1.16 psyexp,2024.2.4,60.12050547891787,2025-02-12 16h56.09.052354 +0800,
6,f,94,6,11,f,1,0.7750841998495162,None,11,6,94,4,156.26127300038934,,,,,,156.24597880011424,156.26127300038934,156.7602234003134,156.76170750008896,157.2592617003247,157.2592617003247,158.0419140001759,f,1,0.7750841998495162,None,,,,,16,002,2025-02-12_16h56.00.585,3.2.  1.16 psyexp,2024.2.4,60.12050547891787,2025-02-12 16h56.09.052354 +0800,
8,f,95,7,11,f,1,0.5868621999397874,None,11,7,95,6,158.05738830007613,,,,,,158.0420482000336,158.05738830007613,158.5564756002277,158.55782390013337,159.05522850016132,159.05522850016132,159.65519830025733,f,1,0.5868621999397874,None,,,,,16,002,2025-02-12_16h56.00.585,3.2.  1.16 psyexp,2024.2.4,60.12050547891787,2025-02-12 16h56.09.052354 +0800,
2,j,96,0,12,j,1,0.5480986000038683,None,12,0,96,1,159.6708901003003,,,,,,159.655337900389,159.6708901003003,160.16961270011961,160.17105760006234,160.66848160000518,160.66848160000518,161.21868280041963,j,1,0.5480986000038683,None,,,,,16,002,2025-02-12_16h56.00.585,3.2.  1.16 psyexp,2024.2.4,60.12050547891787,2025-02-12 16h56.09.052354 +0800,
9,f,97,1,12,f,1,0.7433017999865115,None,12,1,97,7,161.23396350024268,,,,,,161.2188455001451,161.23396350024268,161.732667400036,161.7341414000839,162.2320357002318,162.2320357002318,162.9809679002501,f,1,0.7433017999865115,None,,,,,16,002,2025-02-12_16h56.00.585,3.2.  1.16 psyexp,2024.2.4,60.12050547891787,2025-02-12 16h56.09.052354 +0800,
4,j,98,2,12,j,1,0.5286513003520668,None,12,2,98,3,162.99676370015368,,,,,,162.98113620001823,162.99676370015368,163.47973320027813,163.48154910001904,163.99472710024565,163.99472710024565,164.52786480030045,j,1,0.5286513003520668,None,163.49571210006252,,,,16,002,2025-02-12_16h56.00.585,3.2.  1.16 psyexp,2024.2.4,60.12050547891787,2025-02-12 16h56.09.052354 +0800,
6,f,99,3,12,f,1,0.6413449002429843,None,12,3,99,4,164.54343930026516,,,,,,164.52800800045952,164.54343930026516,165.02643040008843,165.0278005003929,165.54179640021175,165.54179640021175,166.1911108000204,f,1,0.6413449002429843,None,165.04236210044473,,,,16,002,2025-02-12_16h56.00.585,3.2.  1.16 psyexp,2024.2.4,60.12050547891787,2025-02-12 16h56.09.052354 +0800,
1,j,100,4,12,j,1,0.463160099927336,None,12,4,100,0,166.20679670013487,,,,,,166.19127280032262,166.20679670013487,166.70581570034847,166.70715780043975,167.20456320000812,167.20456320000812,167.6731886002235,j,1,0.463160099927336,None,,,,,16,002,2025-02-12_16h56.00.585,3.2.  1.16 psyexp,2024.2.4,60.12050547891787,2025-02-12 16h56.09.052354 +0800,
7,f,101,5,12,f,1,1.0287204999476671,None,12,5,101,5,167.6870647002943,,,,,,167.67332460032776,167.6870647002943,168.18595880037174,168.18761460017413,168.68482290022075,168.68482290022075,169.71701050037518,f,1,1.0287204999476671,None,,,,,16,002,2025-02-12_16h56.00.585,3.2.  1.16 psyexp,2024.2.4,60.12050547891787,2025-02-12 16h56.09.052354 +0800,
3,j,102,6,12,j,1,0.9394427998922765,None,12,6,102,2,169.7323686000891,,,,,,169.71714530000463,169.7323686000891,170.21529900003225,170.21659480035305,170.73027970036492,170.73027970036492,171.67927620001137,j,1,0.9394427998922765,None,170.2314298003912,,,,16,002,2025-02-12_16h56.00.585,3.2.  1.16 psyexp,2024.2.4,60.12050547891787,2025-02-12 16h56.09.052354 +0800,
8,f,103,7,12,f,1,0.7181743001565337,None,12,7,103,6,171.69494070019573,,,,,,171.6794219003059,171.69494070019573,172.19389850040898,172.19528560014442,172.69275790033862,172.69275790033862,173.425466300454,f,1,0.7181743001565337,None,,,,,16,002,2025-02-12_16h56.00.585,3.2.  1.16 psyexp,2024.2.4,60.12050547891787,2025-02-12 16h56.09.052354 +0800,
3,j,104,0,13,j,1,0.5602110996842384,None,13,0,104,2,173.4411745001562,,,,,,173.42560520023108,173.4411745001562,173.92404830036685,173.92549260007218,174.43913720035926,174.43913720035926,175.00542710023,j,1,0.5602110996842384,None,173.9405813002959,,,,16,002,2025-02-12_16h56.00.585,3.2.  1.16 psyexp,2024.2.4,60.12050547891787,2025-02-12 16h56.09.052354 +0800,
2,j,105,1,13,j,1,0.6361402999609709,None,13,1,105,1,175.02116140024737,,,,,,175.00556260021403,175.02116140024737,175.52014930034056,175.52151660015807,176.01907430030406,176.01907430030406,176.66912830015644,j,1,0.6361402999609709,None,,,,,16,002,2025-02-12_16h56.00.585,3.2.  1.16 psyexp,2024.2.4,60.12050547891787,2025-02-12 16h56.09.052354 +0800,
7,f,106,2,13,f,1,0.8262741998769343,None,13,2,106,5,176.68450980028138,,,,,,176.66933800000697,176.68450980028138,177.18322440003976,177.1848752000369,177.68213160010055,177.68213160010055,178.51487230043858,f,1,0.8262741998769343,None,,,,,16,002,2025-02-12_16h56.00.585,3.2.  1.16 psyexp,2024.2.4,60.12050547891787,2025-02-12 16h56.09.052354 +0800,
8,f,107,3,13,f,1,0.5698227002285421,None,13,3,107,6,178.53043900011107,,,,,,178.51503550028428,178.53043900011107,179.01335330028087,179.0150101003237,179.52845750004053,179.52845750004053,180.11127700004727,f,1,0.5698227002285421,None,179.02942940033972,,,,16,002,2025-02-12_16h56.00.585,3.2.  1.16 psyexp,2024.2.4,60.12050547891787,2025-02-12 16h56.09.052354 +0800,
9,f,108,4,13,f,1,0.49581569992005825,None,13,4,108,7,180.1270463000983,,,,,,180.11142580024898,180.1270463000983,180.6102437004447,180.61193090025336,181.12503830017522,181.12503830017522,181.6248945002444,f,1,0.49581569992005825,None,180.62595430016518,,,,16,002,2025-02-12_16h56.00.585,3.2.  1.16 psyexp,2024.2.4,60.12050547891787,2025-02-12 16h56.09.052354 +0800,
6,f,109,5,13,f,1,0.5629556998610497,None,13,5,109,4,181.64067050023004,,,,,,181.62506320001557,181.64067050023004,182.1394646000117,182.14081210037693,182.63841650029644,182.63841650029644,183.20464610029012,f,1,0.5629556998610497,None,,,,,16,002,2025-02-12_16h56.00.585,3.2.  1.16 psyexp,2024.2.4,60.12050547891787,2025-02-12 16h56.09.052354 +0800,
4,j,110,6,13,j,1,0.5173158999532461,None,13,6,110,3,183.22039460018277,,,,,,183.2047871001996,183.22039460018277,183.70339000038803,183.70473240036517,184.2182799000293,184.2182799000293,184.75131090031937,j,1,0.5173158999532461,None,183.7194165000692,,,,16,002,2025-02-12_16h56.00.585,3.2.  1.16 psyexp,2024.2.4,60.12050547891787,2025-02-12 16h56.09.052354 +0800,
1,j,111,7,13,j,1,0.51264030020684,None,13,7,111,0,184.76708260038868,,,,,,184.75145700015128,184.76708260038868,185.25002660043538,185.25157560035586,185.76496670022607,185.76496670022607,186.28219740046188,j,1,0.51264030020684,None,185.2661596001126,,,,16,002,2025-02-12_16h56.00.585,3.2.  1.16 psyexp,2024.2.4,60.12050547891787,2025-02-12 16h56.09.052354 +0800,
6,f,112,0,14,f,1,0.8070657001808286,None,14,0,112,4,186.29723100038245,,,,,,186.28233890002593,186.29723100038245,186.78024690039456,186.78154300013557,187.29530060011894,187.29530060011894,188.11116000032052,f,1,0.8070657001808286,None,186.79612650023773,,,,16,002,2025-02-12_16h56.00.585,3.2.  1.16 psyexp,2024.2.4,60.12050547891787,2025-02-12 16h56.09.052354 +0800,
9,f,113,1,14,f,1,0.7078361003659666,None,14,1,113,7,188.1267682001926,,,,,,188.11134370043874,188.1267682001926,188.6098173004575,188.61141500016674,189.12473120028153,189.12473120028153,189.84099740022793,f,1,0.7078361003659666,None,188.62556430045515,,,,16,002,2025-02-12_16h56.00.585,3.2.  1.16 psyexp,2024.2.4,60.12050547891787,2025-02-12 16h56.09.052354 +0800,
1,j,114,2,14,j,1,0.4547747001051903,None,14,2,114,0,189.85643760021776,,,,,,189.84117680042982,189.85643760021776,190.35545940045267,190.35737090045586,190.85422370024025,190.85422370024025,191.32108920020983,j,1,0.4547747001051903,None,,,,,16,002,2025-02-12_16h56.00.585,3.2.  1.16 psyexp,2024.2.4,60.12050547891787,2025-02-12 16h56.09.052354 +0800,
4,j,115,3,14,j,1,0.5510406997054815,None,14,3,115,3,191.33678210014477,,,,,,191.32126490026712,191.33678210014477,191.8356282003224,191.8369939001277,192.3343312004581,192.3343312004581,192.9006789000705,j,1,0.5510406997054815,None,,,,,16,002,2025-02-12_16h56.00.585,3.2.  1.16 psyexp,2024.2.4,60.12050547891787,2025-02-12 16h56.09.052354 +0800,
3,j,116,4,14,j,1,0.5388750000856817,None,14,4,116,2,192.91636960022151,,,,,,192.90084380004555,192.91636960022151,193.39923110045493,193.40075640007854,193.91434760019183,193.91434760019183,194.46389800030738,j,1,0.5388750000856817,None,193.4152591000311,,,,16,002,2025-02-12_16h56.00.585,3.2.  1.16 psyexp,2024.2.4,60.12050547891787,2025-02-12 16h56.09.052354 +0800,
2,j,117,5,14,j,1,0.41947960015386343,None,14,5,117,1,194.479618600104,,,,,,194.46404360001907,194.479618600104,194.96270870044827,194.9643072001636,195.4779341001995,195.4779341001995,195.9110106001608,j,1,0.41947960015386343,None,194.97878540027887,,,,16,002,2025-02-12_16h56.00.585,3.2.  1.16 psyexp,2024.2.4,60.12050547891787,2025-02-12 16h56.09.052354 +0800,
8,f,118,6,14,f,1,0.5750755998305976,None,14,6,118,6,195.9265904002823,,,,,,195.91115540033206,195.9265904002823,196.40955930016935,196.41102610016242,196.92500920034945,196.92500920034945,197.5088557000272,f,1,0.5750755998305976,None,196.42563270032406,,,,16,002,2025-02-12_16h56.00.585,3.2.  1.16 psyexp,2024.2.4,60.12050547891787,2025-02-12 16h56.09.052354 +0800,
7,f,119,7,14,f,1,0.5767270997166634,None,14,7,119,5,197.52350570028648,,,,,,197.50902430014685,197.52350570028648,198.0226308000274,198.02396340016276,198.52121290005744,198.52121290005744,199.10400590021163,f,1,0.5767270997166634,None,,,,,16,002,2025-02-12_16h56.00.585,3.2.  1.16 psyexp,2024.2.4,60.12050547891787,2025-02-12 16h56.09.052354 +0800,
2,j,120,0,15,j,1,0.6342223999090493,None,15,0,120,1,199.1200432004407,,,,,,199.10414750035852,199.1200432004407,199.6191262002103,199.6205014004372,200.1177405002527,200.1177405002527,200.7672434002161,j,1,0.6342223999090493,None,,,,,16,002,2025-02-12_16h56.00.585,3.2.  1.16 psyexp,2024.2.4,60.12050547891787,2025-02-12 16h56.09.052354 +0800,
1,j,121,1,15,j,1,0.5848925998434424,None,15,1,121,0,200.78321960009634,,,,,,200.76738400012255,200.78321960009634,201.28192630037665,201.2832754002884,201.78078840021044,201.78078840021044,202.38071590010077,j,1,0.5848925998434424,None,,,,,16,002,2025-02-12_16h56.00.585,3.2.  1.16 psyexp,2024.2.4,60.12050547891787,2025-02-12 16h56.09.052354 +0800,
7,f,122,2,15,f,1,0.5651143002323806,None,15,2,122,5,202.39633500017226,,,,,,202.38087850017473,202.39633500017226,202.89525480009615,202.8969530002214,203.3941950001754,203.3941950001754,203.96067300019786,f,1,0.5651143002323806,None,,,,,16,002,2025-02-12_16h56.00.585,3.2.  1.16 psyexp,2024.2.4,60.12050547891787,2025-02-12 16h56.09.052354 +0800,
8,f,123,3,15,f,1,0.567340699955821,None,15,3,123,6,203.97601830027997,,,,,,203.96081810025498,203.97601830027997,204.4588600001298,204.46019710041583,204.9741067001596,204.9741067001596,205.55749180028215,f,1,0.567340699955821,None,204.4749142001383,,,,16,002,2025-02-12_16h56.00.585,3.2.  1.16 psyexp,2024.2.4,60.12050547891787,2025-02-12 16h56.09.052354 +0800,
9,f,124,4,15,f,1,0.5751820001751184,None,15,4,124,7,205.5729971001856,,,,,,205.5576532999985,205.5729971001856,206.05589540023357,206.05750440014526,206.5709054004401,206.5709054004401,207.15365470014513,f,1,0.5751820001751184,None,206.07186440005898,,,,16,002,2025-02-12_16h56.00.585,3.2.  1.16 psyexp,2024.2.4,60.12050547891787,2025-02-12 16h56.09.052354 +0800,
6,f,125,5,15,f,1,0.8650728999637067,None,15,5,125,4,207.16936920024455,,,,,,207.15380780026317,207.16936920024455,207.65242880024016,207.65379970008507,208.16729110013694,208.16729110013694,209.0335253002122,f,1,0.8650728999637067,None,207.66878280043602,,,,16,002,2025-02-12_16h56.00.585,3.2.  1.16 psyexp,2024.2.4,60.12050547891787,2025-02-12 16h56.09.052354 +0800,
4,j,126,6,15,j,1,0.743359399959445,None,15,6,126,3,209.04880800005049,,,,,,209.03368950029835,209.04880800005049,209.53189520025626,209.53349750023335,210.04672530014068,210.04672530014068,210.79597510024905,j,1,0.743359399959445,None,209.5477136000991,,,,16,002,2025-02-12_16h56.00.585,3.2.  1.16 psyexp,2024.2.4,60.12050547891787,2025-02-12 16h56.09.052354 +0800,
3,j,127,7,15,j,1,0.6052728998474777,None,15,7,127,2,210.8116181003861,,,,,,210.79613730031997,210.8116181003861,211.31064810045063,211.31211080029607,211.80965610034764,211.80965610034764,212.42610730044544,j,1,0.6052728998474777,None,,,,,16,002,2025-02-12_16h56.00.585,3.2.  1.16 psyexp,2024.2.4,60.12050547891787,2025-02-12 16h56.09.052354 +0800,
1,j,128,0,16,j,1,0.5250459001399577,None,16,0,128,0,212.44155090022832,,,,,,212.42628260003403,212.44155090022832,212.92465140018612,212.9259948004037,213.4393424000591,213.4393424000591,213.9725519004278,j,1,0.5250459001399577,None,212.94061260018498,,,,16,002,2025-02-12_16h56.00.585,3.2.  1.16 psyexp,2024.2.4,60.12050547891787,2025-02-12 16h56.09.052354 +0800,
9,f,129,1,16,f,1,0.5919937998987734,None,16,1,129,7,213.98814520007,,,,,,213.97272050008178,213.98814520007,214.48714970005676,214.48963510012254,214.98611910035834,214.98611910035834,215.58607770036906,f,1,0.5919937998987734,None,,,,,16,002,2025-02-12_16h56.00.585,3.2.  1.16 psyexp,2024.2.4,60.12050547891787,2025-02-12 16h56.09.052354 +0800,
4,j,130,2,16,j,1,0.8769441000185907,None,16,2,130,3,215.6015950003639,,,,,,215.58623940031976,215.6015950003639,216.10041320044547,216.10205660015345,216.5994027000852,216.5994027000852,217.48178310040385,j,1,0.8769441000185907,None,,,,,16,002,2025-02-12_16h56.00.585,3.2.  1.16 psyexp,2024.2.4,60.12050547891787,2025-02-12 16h56.09.052354 +0800,
3,j,131,3,16,j,1,0.5352492001838982,None,16,3,131,2,217.49721410032362,,,,,,217.48192390007898,217.49721410032362,217.98018010007218,217.9815713004209,218.49541690014303,218.49541690014303,219.04533620039,j,1,0.5352492001838982,None,217.99621310038492,,,,16,002,2025-02-12_16h56.00.585,3.2.  1.16 psyexp,2024.2.4,60.12050547891787,2025-02-12 16h56.09.052354 +0800,
8,f,132,4,16,f,1,0.472038300242275,None,16,4,132,6,219.06065710028633,,,,,,219.04547960031778,219.06065710028633,219.5459013003856,219.54894020035863,220.05867210030556,220.05867210030556,220.54184060031548,f,1,0.472038300242275,None,219.56053390027955,,,,16,002,2025-02-12_16h56.00.585,3.2.  1.16 psyexp,2024.2.4,60.12050547891787,2025-02-12 16h56.09.052354 +0800,
6,f,133,5,16,f,1,0.6790530001744628,None,16,5,133,4,220.55848450027406,,,,,,220.54198540002108,220.55848450027406,221.05648090038449,221.05781910009682,221.5554979001172,221.5554979001172,222.2383748004213,f,1,0.6790530001744628,None,,,,,16,002,2025-02-12_16h56.00.585,3.2.  1.16 psyexp,2024.2.4,60.12050547891787,2025-02-12 16h56.09.052354 +0800,
7,f,134,6,16,f,1,0.5938522000797093,None,16,6,134,5,222.2540711001493,,,,,,222.23853810038418,222.2540711001493,222.75285460008308,222.7542319004424,223.25183680001646,223.25183680001646,223.85167250037193,f,1,0.5938522000797093,None,,,,,16,002,2025-02-12_16h56.00.585,3.2.  1.16 psyexp,2024.2.4,60.12050547891787,2025-02-12 16h56.09.052354 +0800,
2,j,135,7,16,j,1,0.5270594996400177,None,16,7,135,1,223.86709820013493,,,,,,223.8518061004579,223.86709820013493,224.3500231001526,224.351348800119,224.86502200039104,224.86502200039104,225.39813680015504,j,1,0.5270594996400177,None,224.36589530017227,,,,16,002,2025-02-12_16h56.00.585,3.2.  1.16 psyexp,2024.2.4,60.12050547891787,2025-02-12 16h56.09.052354 +0800,
2,j,136,0,17,j,1,0.44236950017511845,None,17,0,136,1,225.41385150002316,,,,,,225.39829220017418,225.41385150002316,225.9127500001341,225.91409470001236,226.41176280006766,226.41176280006766,226.86210980033502,j,1,0.44236950017511845,None,,,,,16,002,2025-02-12_16h56.00.585,3.2.  1.16 psyexp,2024.2.4,60.12050547891787,2025-02-12 16h56.09.052354 +0800,
4,j,137,1,17,j,1,0.42723439959809184,None,17,1,137,3,226.8773177000694,,,,,,226.8622961002402,226.8773177000694,227.37637260043994,227.3777876002714,227.87516809999943,227.87516809999943,228.30876420019194,j,1,0.42723439959809184,None,,,,,16,002,2025-02-12_16h56.00.585,3.2.  1.16 psyexp,2024.2.4,60.12050547891787,2025-02-12 16h56.09.052354 +0800,
8,f,138,2,17,f,1,0.4988292003981769,None,17,2,138,6,228.32428300008178,,,,,,228.30890010017902,228.32428300008178,228.80770770041272,228.80933740036562,229.3220598003827,229.3220598003827,229.8230556002818,f,1,0.4988292003981769,None,228.82318649999797,,,,16,002,2025-02-12_16h56.00.585,3.2.  1.16 psyexp,2024.2.4,60.12050547891787,2025-02-12 16h56.09.052354 +0800,
1,j,139,3,17,j,1,0.5294236000627279,None,17,3,139,0,229.83785890042782,,,,,,229.82323600025848,229.83785890042782,230.33664430025965,230.33803650038317,230.83568650018424,230.83568650018424,231.3686444000341,j,1,0.5294236000627279,None,,,,,16,002,2025-02-12_16h56.00.585,3.2.  1.16 psyexp,2024.2.4,60.12050547891787,2025-02-12 16h56.09.052354 +0800,
6,f,140,4,17,f,1,0.5454493998549879,None,17,4,140,4,231.3844666001387,,,,,,231.3687859000638,231.3844666001387,231.88355350028723,231.88495840039104,232.3823319002986,232.3823319002986,232.93214040016755,f,1,0.5454493998549879,None,,,,,16,002,2025-02-12_16h56.00.585,3.2.  1.16 psyexp,2024.2.4,60.12050547891787,2025-02-12 16h56.09.052354 +0800,
9,f,141,5,17,f,1,0.5035850997082889,None,17,5,141,7,232.94787200028077,,,,,,232.93228500010446,232.94787200028077,233.43076000036672,233.4323949003592,233.94567260006443,233.94567260006443,234.46235270006582,f,1,0.5035850997082889,None,233.44675970030949,,,,16,002,2025-02-12_16h56.00.585,3.2.  1.16 psyexp,2024.2.4,60.12050547891787,2025-02-12 16h56.09.052354 +0800,
3,j,142,6,17,j,1,0.4885442997328937,None,17,6,142,2,234.4782344000414,,,,,,234.46251100022346,234.4782344000414,234.9611754002981,234.9626173004508,235.47588440030813,235.47588440030813,235.97555060032755,j,1,0.4885442997328937,None,234.97696220036596,,,,16,002,2025-02-12_16h56.00.585,3.2.  1.16 psyexp,2024.2.4,60.12050547891787,2025-02-12 16h56.09.052354 +0800,
7,f,143,7,17,f,1,0.6460984996519983,None,17,7,143,5,235.99140250030905,,,,,,235.9757365002297,235.99140250030905,236.49036240018904,236.49171700002626,236.9891667002812,236.9891667002812,237.63895230041817,f,1,0.6460984996519983,None,,,,,16,002,2025-02-12_16h56.00.585,3.2.  1.16 psyexp,2024.2.4,60.12050547891787,2025-02-12 16h56.09.052354 +0800,
2,j,144,0,18,j,1,0.6146359001286328,None,18,0,144,1,237.65455910004675,,,,,,237.63913990044966,237.65455910004675,238.15349490009248,238.15497510042042,238.6524952002801,238.6524952002801,239.2694790000096,j,1,0.6146359001286328,None,,,,,16,002,2025-02-12_16h56.00.585,3.2.  1.16 psyexp,2024.2.4,60.12050547891787,2025-02-12 16h56.09.052354 +0800,
1,j,145,1,18,j,1,0.8395445002242923,None,18,1,145,0,239.2842340003699,,,,,,239.26962820021436,239.2842340003699,239.76711940020323,239.76849210029468,240.28226730041206,240.28226730041206,241.1315031000413,j,1,0.8395445002242923,None,239.78317640023306,,,,16,002,2025-02-12_16h56.00.585,3.2.  1.16 psyexp,2024.2.4,60.12050547891787,2025-02-12 16h56.09.052354 +0800,
3,j,146,2,18,j,1,0.7647979003377259,None,18,2,146,2,241.14694830030203,,,,,,241.13169610034674,241.14694830030203,241.62993490044028,241.6315868003294,242.14488540031016,242.14488540031016,242.91114960005507,j,1,0.7647979003377259,None,241.6460669003427,,,,16,002,2025-02-12_16h56.00.585,3.2.  1.16 psyexp,2024.2.4,60.12050547891787,2025-02-12 16h56.09.052354 +0800,
7,f,147,3,18,f,1,0.6662992001511157,None,18,3,147,5,242.9263733001426,,,,,,242.911291600205,242.9263733001426,243.4093312001787,243.4108750000596,243.92430390045047,243.92430390045047,244.607478200458,f,1,0.6662992001511157,None,243.42533610016108,,,,16,002,2025-02-12_16h56.00.585,3.2.  1.16 psyexp,2024.2.4,60.12050547891787,2025-02-12 16h56.09.052354 +0800,
9,f,148,4,18,f,1,0.6109457002021372,None,18,4,148,7,244.62293620035052,,,,,,244.6076554004103,244.62293620035052,245.10587850026786,245.10733900032938,245.6208219002001,245.6208219002001,246.23690530005842,f,1,0.6109457002021372,None,245.12174340011552,,,,16,002,2025-02-12_16h56.00.585,3.2.  1.16 psyexp,2024.2.4,60.12050547891787,2025-02-12 16h56.09.052354 +0800,
8,f,149,5,18,f,1,0.7392007997259498,None,18,5,149,6,246.25283790007234,,,,,,246.23706210032105,246.25283790007234,246.75176770007238,246.7532316003926,247.25063920021057,247.25063920021057,248.0000687004067,f,1,0.7392007997259498,None,,,,,16,002,2025-02-12_16h56.00.585,3.2.  1.16 psyexp,2024.2.4,60.12050547891787,2025-02-12 16h56.09.052354 +0800,
4,j,150,6,18,j,1,0.7944661998189986,None,18,6,150,3,248.01582250045612,,,,,,248.00021140044555,248.01582250045612,248.51495330035686,248.51644240040332,249.01356270024553,249.01356270024553,249.81269890023395,j,1,0.7944661998189986,None,,,,,16,002,2025-02-12_16h56.00.585,3.2.  1.16 psyexp,2024.2.4,60.12050547891787,2025-02-12 16h56.09.052354 +0800,
6,f,151,7,18,f,1,0.787765400018543,None,18,7,151,4,249.8284652000293,,,,,,249.81284420005977,249.8284652000293,250.31150570046157,250.31305770017207,250.82647690037265,250.82647690037265,251.6257561002858,f,1,0.787765400018543,None,250.32759950030595,,,,16,002,2025-02-12_16h56.00.585,3.2.  1.16 psyexp,2024.2.4,60.12050547891787,2025-02-12 16h56.09.052354 +0800,
9,f,152,0,19,f,1,0.7230607001110911,None,19,0,152,7,251.64129600021988,,,,,,251.62590340012684,251.64129600021988,252.1403498002328,252.14170180028304,252.63945400016382,252.63945400016382,253.37200050009415,f,1,0.7230607001110911,None,,,,,16,002,2025-02-12_16h56.00.585,3.2.  1.16 psyexp,2024.2.4,60.12050547891787,2025-02-12 16h56.09.052354 +0800,
4,j,153,1,19,j,1,0.6184809999540448,None,19,1,153,3,253.38783270027488,,,,,,253.3721534004435,253.38783270027488,253.88659430015832,253.88805560022593,254.38561900006607,254.38561900006607,255.01853390038013,j,1,0.6184809999540448,None,,,,,16,002,2025-02-12_16h56.00.585,3.2.  1.16 psyexp,2024.2.4,60.12050547891787,2025-02-12 16h56.09.052354 +0800,
6,f,154,2,19,f,1,0.71221710043028,None,19,2,154,4,255.0340858004056,,,,,,255.01866900036111,255.0340858004056,255.53310140036047,255.53477900009602,256.03189810039476,256.03189810039476,256.74846030026674,f,1,0.71221710043028,None,,,,,16,002,2025-02-12_16h56.00.585,3.2.  1.16 psyexp,2024.2.4,60.12050547891787,2025-02-12 16h56.09.052354 +0800,
2,j,155,3,19,j,1,0.696356600150466,None,19,3,155,1,256.76380480034277,,,,,,256.7486221003346,256.76380480034277,257.2468874002807,257.24821560038254,257.7617242000997,257.7617242000997,258.46114090038463,j,1,0.696356600150466,None,257.26285600010306,,,,16,002,2025-02-12_16h56.00.585,3.2.  1.16 psyexp,2024.2.4,60.12050547891787,2025-02-12 16h56.09.052354 +0800,
7,f,156,4,19,f,1,0.5099674998782575,None,19,4,156,5,258.4767766003497,,,,,,258.46129730017856,258.4767766003497,258.9597220001742,258.96117050014436,259.47461130004376,259.47461130004376,259.99143520044163,f,1,0.5099674998782575,None,258.97589630028233,,,,16,002,2025-02-12_16h56.00.585,3.2.  1.16 psyexp,2024.2.4,60.12050547891787,2025-02-12 16h56.09.052354 +0800,
8,f,157,5,19,f,1,0.6815721997991204,None,19,5,157,6,260.00683920038864,,,,,,259.9915873003192,260.00683920038864,260.50574730010703,260.507211800199,261.0045827003196,261.0045827003196,261.6877684001811,f,1,0.6815721997991204,None,,,,,16,002,2025-02-12_16h56.00.585,3.2.  1.16 psyexp,2024.2.4,60.12050547891787,2025-02-12 16h56.09.052354 +0800,
1,j,158,6,19,j,1,0.523626800160855,None,19,6,158,0,261.70341300033033,,,,,,261.6879238002002,261.70341300033033,262.2025108002126,262.2040573004633,262.701587700285,262.701587700285,263.23421530006453,j,1,0.523626800160855,None,,,,,16,002,2025-02-12_16h56.00.585,3.2.  1.16 psyexp,2024.2.4,60.12050547891787,2025-02-12 16h56.09.052354 +0800,
3,j,159,7,19,j,1,0.693835100159049,None,19,7,159,2,263.25012630037963,,,,,,263.23440190032125,263.25012630037963,263.74902320001274,263.7506502000615,264.24781270045787,264.24781270045787,264.94914880022407,j,1,0.693835100159049,None,,,,,16,002,2025-02-12_16h56.00.585,3.2.  1.16 psyexp,2024.2.4,60.12050547891787,2025-02-12 16h56.09.052354 +0800,
8,f,160,0,20,f,1,0.41987610002979636,None,20,0,160,6,264.9630472003482,,,,,,264.949280500412,264.9630472003482,265.4620048003271,265.46355370013043,265.9606996001676,265.9606996001676,266.39431750029325,f,1,0.41987610002979636,None,,,,,16,002,2025-02-12_16h56.00.585,3.2.  1.16 psyexp,2024.2.4,60.12050547891787,2025-02-12 16h56.09.052354 +0800,
7,f,161,1,20,f,1,0.48821410024538636,None,20,1,161,5,266.4096924001351,,,,,,266.3944745003246,266.4096924001351,266.9086860003881,266.91004060022533,267.40773020032793,267.40773020032793,267.9077076003887,f,1,0.48821410024538636,None,,,,,16,002,2025-02-12_16h56.00.585,3.2.  1.16 psyexp,2024.2.4,60.12050547891787,2025-02-12 16h56.09.052354 +0800,
6,f,162,2,20,f,1,0.39901489997282624,None,20,2,162,4,267.92334010032937,,,,,,267.90791250020266,267.92334010032937,268.4222426000051,268.42420560028404,268.92118030041456,268.92118030041456,269.32128910021856,f,1,0.39901489997282624,None,,,,,16,002,2025-02-12_16h56.00.585,3.2.  1.16 psyexp,2024.2.4,60.12050547891787,2025-02-12 16h56.09.052354 +0800,
4,j,163,3,20,j,1,0.4903242001309991,None,20,3,163,3,269.33684460027143,,,,,,269.3214380000718,269.33684460027143,269.81999600026757,269.82159390021116,270.33491470012814,270.33491470012814,270.83492510020733,j,1,0.4903242001309991,None,269.8358297003433,,,,16,002,2025-02-12_16h56.00.585,3.2.  1.16 psyexp,2024.2.4,60.12050547891787,2025-02-12 16h56.09.052354 +0800,
9,f,164,4,20,f,1,0.9136577001772821,None,20,4,164,7,270.850430900231,,,,,,270.8350890004076,270.850430900231,271.3495191000402,271.35093620000407,271.8482806002721,271.8482806002721,272.76379320025444,f,1,0.9136577001772821,None,,,,,16,002,2025-02-12_16h56.00.585,3.2.  1.16 psyexp,2024.2.4,60.12050547891787,2025-02-12 16h56.09.052354 +0800,
3,j,165,5,20,j,1,0.6089765997603536,None,20,5,165,2,272.7795223002322,,,,,,272.76394040044397,272.7795223002322,273.2629528003745,273.2645380003378,273.77754760021344,273.77754760021344,274.3942077001557,j,1,0.6089765997603536,None,273.278597000055,,,,16,002,2025-02-12_16h56.00.585,3.2.  1.16 psyexp,2024.2.4,60.12050547891787,2025-02-12 16h56.09.052354 +0800,
2,j,166,6,20,j,1,0.5401828000321984,None,20,6,166,1,274.40926030045375,,,,,,274.3943645004183,274.40926030045375,274.892252500169,274.8936063000001,275.40791200008243,275.40791200008243,275.9571884004399,j,1,0.5401828000321984,None,274.90832720045,,,,16,002,2025-02-12_16h56.00.585,3.2.  1.16 psyexp,2024.2.4,60.12050547891787,2025-02-12 16h56.09.052354 +0800,
1,j,167,7,20,j,1,0.3897807998582721,None,20,7,167,0,275.97306390013546,,,,,,275.95735440030694,275.97306390013546,276.4717282000929,276.4731060001068,276.97059210017323,276.97059210017323,277.37081330036744,j,1,0.3897807998582721,None,,,,,16,002,2025-02-12_16h56.00.585,3.2.  1.16 psyexp,2024.2.4,60.12050547891787,2025-02-12 16h56.09.052354 +0800,
6,f,168,0,21,f,1,0.47445449978113174,None,21,0,168,4,277.3863136,,,,,,277.3709590001963,277.3863136,277.86940910015255,277.87090980028734,278.3844241001643,278.3844241001643,278.86752380011603,f,1,0.47445449978113174,None,277.8854081002064,,,,16,002,2025-02-12_16h56.00.585,3.2.  1.16 psyexp,2024.2.4,60.12050547891787,2025-02-12 16h56.09.052354 +0800,
8,f,169,1,21,f,1,0.4040422001853585,None,21,1,169,6,278.88313690014184,,,,,,278.8676670002751,278.88313690014184,279.36603570031,279.3674872000702,279.88125490024686,279.88125490024686,280.2981843003072,f,1,0.4040422001853585,None,279.38204920012504,,,,16,002,2025-02-12_16h56.00.585,3.2.  1.16 psyexp,2024.2.4,60.12050547891787,2025-02-12 16h56.09.052354 +0800,
3,j,170,2,21,j,1,0.479906199965626,None,21,2,170,2,280.3134569004178,,,,,,280.2983282003552,280.3134569004178,280.79636130016297,280.7980613000691,281.3114263000898,281.3114263000898,281.7947906004265,j,1,0.479906199965626,None,280.81242440035567,,,,16,002,2025-02-12_16h56.00.585,3.2.  1.16 psyexp,2024.2.4,60.12050547891787,2025-02-12 16h56.09.052354 +0800,
1,j,171,3,21,j,1,0.407101399730891,None,21,3,171,0,281.81047520041466,,,,,,281.79495210014284,281.81047520041466,282.3097182000056,282.31102400040254,282.80825260002166,282.80825260002166,283.2264497000724,j,1,0.407101399730891,None,,,,,16,002,2025-02-12_16h56.00.585,3.2.  1.16 psyexp,2024.2.4,60.12050547891787,2025-02-12 16h56.09.052354 +0800,
2,j,172,4,21,j,1,0.40789350029081106,None,21,4,172,1,283.24047200009227,,,,,,283.2266069003381,283.24047200009227,283.72354950010777,283.72505980031565,284.23855470027775,284.23855470027775,284.65548520023003,j,1,0.40789350029081106,None,283.739650500007,,,,16,002,2025-02-12_16h56.00.585,3.2.  1.16 psyexp,2024.2.4,60.12050547891787,2025-02-12 16h56.09.052354 +0800,
4,j,173,5,21,j,1,0.47038350021466613,None,21,5,173,3,284.67117830039933,,,,,,284.65564090013504,284.67117830039933,285.1699412004091,285.17136220028624,285.66896350029856,285.66896350029856,286.1521606002934,j,1,0.47038350021466613,None,,,,,16,002,2025-02-12_16h56.00.585,3.2.  1.16 psyexp,2024.2.4,60.12050547891787,2025-02-12 16h56.09.052354 +0800,
9,f,174,6,21,f,1,0.5069789001718163,None,21,6,174,7,286.16789830010384,,,,,,286.1522980001755,286.16789830010384,286.66680680029094,286.66812160005793,287.16574210021645,287.16574210021645,287.6824070001021,f,1,0.5069789001718163,None,,,,,16,002,2025-02-12_16h56.00.585,3.2.  1.16 psyexp,2024.2.4,60.12050547891787,2025-02-12 16h56.09.052354 +0800,
7,f,175,7,21,f,1,0.4298006002791226,None,21,7,175,5,287.69774780003354,,,,,,287.68255120003596,287.69774780003354,288.18069180008024,288.1819643001072,288.6958719003014,288.6958719003014,289.12895150016993,f,1,0.4298006002791226,None,288.197132400237,,,,16,002,2025-02-12_16h56.00.585,3.2.  1.16 psyexp,2024.2.4,60.12050547891787,2025-02-12 16h56.09.052354 +0800,
2,j,176,0,22,j,1,0.683961299713701,None,22,0,176,1,289.1446975003928,,,,,,289.12912490032613,289.1446975003928,289.62780820019543,289.62922500027344,290.14265150018036,290.14265150018036,290.84257890004665,j,1,0.683961299713701,None,289.6455450002104,,,,16,002,2025-02-12_16h56.00.585,3.2.  1.16 psyexp,2024.2.4,60.12050547891787,2025-02-12 16h56.09.052354 +0800,
9,f,177,1,22,f,1,0.6480767000466585,None,22,1,177,7,290.85780920041725,,,,,,290.84274610038847,290.85780920041725,291.35700580012053,291.3584280000068,291.85571260005236,291.85571260005236,292.50548100005835,f,1,0.6480767000466585,None,,,,,16,002,2025-02-12_16h56.00.585,3.2.  1.16 psyexp,2024.2.4,60.12050547891787,2025-02-12 16h56.09.052354 +0800,
4,j,178,2,22,j,1,0.6024787998758256,None,22,2,178,3,292.5210047001019,,,,,,292.50564870005473,292.5210047001019,293.0196915003471,293.021401300095,293.51872680010274,293.51872680010274,294.13512910017744,j,1,0.6024787998758256,None,,,,,16,002,2025-02-12_16h56.00.585,3.2.  1.16 psyexp,2024.2.4,60.12050547891787,2025-02-12 16h56.09.052354 +0800,
7,f,179,3,22,f,1,0.6726696998812258,None,22,3,179,5,294.15055670030415,,,,,,294.13527050009,294.15055670030415,294.63340390007943,294.63474130025133,295.14853490004316,295.14853490004316,295.83179450035095,f,1,0.6726696998812258,None,294.6498809000477,,,,16,002,2025-02-12_16h56.00.585,3.2.  1.16 psyexp,2024.2.4,60.12050547891787,2025-02-12 16h56.09.052354 +0800,
3,j,180,4,22,j,1,0.646267999894917,None,22,4,180,2,295.8472204999998,,,,,,295.8319736002013,295.8472204999998,296.3459733002819,296.3472789004445,296.845107300207,296.845107300207,297.4943539001979,j,1,0.646267999894917,None,,,,,16,002,2025-02-12_16h56.00.585,3.2.  1.16 psyexp,2024.2.4,60.12050547891787,2025-02-12 16h56.09.052354 +0800,
8,f,181,5,22,f,1,0.681901500094682,None,22,5,181,6,297.51153240026906,,,,,,297.49451150000095,297.51153240026906,298.00922510027885,298.0107905003242,298.50828180043027,298.50828180043027,299.19126980006695,f,1,0.681901500094682,None,,,,,16,002,2025-02-12_16h56.00.585,3.2.  1.16 psyexp,2024.2.4,60.12050547891787,2025-02-12 16h56.09.052354 +0800,
1,j,182,6,22,j,1,0.5060800998471677,None,22,6,182,0,299.20669960044324,,,,,,299.19141190033406,299.20669960044324,299.7056433004327,299.70714230043814,300.2045707004145,300.2045707004145,300.72091650031507,j,1,0.5060800998471677,None,,,,,16,002,2025-02-12_16h56.00.585,3.2.  1.16 psyexp,2024.2.4,60.12050547891787,2025-02-12 16h56.09.052354 +0800,
6,f,183,7,22,f,1,0.7735910001210868,None,22,7,183,4,300.73676200024784,,,,,,300.7210722002201,300.73676200024784,301.2356634000316,301.23697830038145,301.7344437004067,301.7344437004067,302.51716280030087,f,1,0.7735910001210868,None,,,,,16,002,2025-02-12_16h56.00.585,3.2.  1.16 psyexp,2024.2.4,60.12050547891787,2025-02-12 16h56.09.052354 +0800,
4,j,184,0,23,j,1,0.5290323002263904,None,23,0,184,3,302.53324610041454,,,,,,302.5173406000249,302.53324610041454,303.03222900023684,303.03445380041376,303.53113950043917,303.53113950043917,304.06395810004324,j,1,0.5290323002263904,None,,,,,16,002,2025-02-12_16h56.00.585,3.2.  1.16 psyexp,2024.2.4,60.12050547891787,2025-02-12 16h56.09.052354 +0800,
3,j,185,1,23,j,1,0.6724824998527765,None,23,1,185,2,304.0801424002275,,,,,,304.0641334000975,304.0801424002275,304.5786431003362,304.5801641000435,305.07745050033554,305.07745050033554,305.7602496002801,j,1,0.6724824998527765,None,,,,,16,002,2025-02-12_16h56.00.585,3.2.  1.16 psyexp,2024.2.4,60.12050547891787,2025-02-12 16h56.09.052354 +0800,
6,f,186,2,23,f,1,0.5834812000393867,None,23,2,186,4,305.7758886003867,,,,,,305.7603939003311,305.7758886003867,306.2587769003585,306.26045640045777,306.7738184002228,306.7738184002228,307.37323200004175,f,1,0.5834812000393867,None,306.27483980031684,,,,16,002,2025-02-12_16h56.00.585,3.2.  1.16 psyexp,2024.2.4,60.12050547891787,2025-02-12 16h56.09.052354 +0800,
1,j,187,3,23,j,1,0.6982371001504362,None,23,3,187,0,307.38940350012854,,,,,,307.37337200017646,307.38940350012854,307.88806820008904,307.8893734002486,308.3871296001598,308.3871296001598,309.0868610003963,j,1,0.6982371001504362,None,,,,,16,002,2025-02-12_16h56.00.585,3.2.  1.16 psyexp,2024.2.4,60.12050547891787,2025-02-12 16h56.09.052354 +0800,
8,f,188,4,23,f,1,0.760622899979353,None,23,4,188,6,309.1030047000386,,,,,,309.0870451000519,309.1030047000386,309.601137700025,309.60255770012736,310.1007269001566,310.1007269001566,310.86602270044386,f,1,0.760622899979353,None,,,,,16,002,2025-02-12_16h56.00.585,3.2.  1.16 psyexp,2024.2.4,60.12050547891787,2025-02-12 16h56.09.052354 +0800,
7,f,189,5,23,j,0,0.676524099893868,None,23,5,189,5,310.8816483002156,,,,,,310.8661703001708,310.8816483002156,311.3807363002561,311.3822473003529,311.879596600309,311.879596600309,312.5627586003393,j,0,0.676524099893868,None,,,,,16,002,2025-02-12_16h56.00.585,3.2.  1.16 psyexp,2024.2.4,60.12050547891787,2025-02-12 16h56.09.052354 +0800,
9,f,190,6,23,f,1,1.0457306001335382,None,23,6,190,7,312.5780475004576,,,,,,312.5629099002108,312.5780475004576,313.0770780001767,313.07847080007195,313.576056800317,313.576056800317,314.624738200102,f,1,1.0457306001335382,None,,,,,16,002,2025-02-12_16h56.00.585,3.2.  1.16 psyexp,2024.2.4,60.12050547891787,2025-02-12 16h56.09.052354 +0800,
2,j,191,7,23,j,1,0.5025148000568151,None,23,7,191,1,314.6406159000471,,,,,,314.6248841001652,314.6406159000471,315.12467990024015,315.12598030036315,315.638353000395,315.638353000395,316.15456510009244,j,1,0.5025148000568151,None,315.13937370013446,,,,16,002,2025-02-12_16h56.00.585,3.2.  1.16 psyexp,2024.2.4,60.12050547891787,2025-02-12 16h56.09.052354 +0800,
2,j,192,0,24,j,1,0.5290548000484705,None,24,0,192,1,316.17046720022336,,,,,,316.15470500010997,316.17046720022336,316.65340750012547,316.6547357002273,317.16812360007316,317.16812360007316,317.70132130011916,j,1,0.5290548000484705,None,316.6692400001921,,,,16,002,2025-02-12_16h56.00.585,3.2.  1.16 psyexp,2024.2.4,60.12050547891787,2025-02-12 16h56.09.052354 +0800,
1,j,193,1,24,j,1,0.46084140008315444,None,24,1,193,0,317.7173892999999,,,,,,317.70146070001647,317.7173892999999,318.21617410006,318.2174660000019,318.7154223001562,318.7154223001562,319.18167480034754,j,1,0.46084140008315444,None,,,,,16,002,2025-02-12_16h56.00.585,3.2.  1.16 psyexp,2024.2.4,60.12050547891787,2025-02-12 16h56.09.052354 +0800,
8,f,194,2,24,f,1,0.4226525998674333,None,24,2,194,6,319.19723220029846,,,,,,319.18182510044426,319.19723220029846,319.68032160028815,319.68229930009693,320.19530020002276,320.19530020002276,320.6288681002334,f,1,0.4226525998674333,None,319.69638120010495,,,,16,002,2025-02-12_16h56.00.585,3.2.  1.16 psyexp,2024.2.4,60.12050547891787,2025-02-12 16h56.09.052354 +0800,
6,f,195,3,24,f,1,0.6299145999364555,None,24,3,195,4,320.6444790000096,,,,,,320.62904230039567,320.6444790000096,321.1274083000608,321.12884900020435,321.6423422000371,321.6423422000371,322.2750991000794,f,1,0.6299145999364555,None,321.1433356003836,,,,16,002,2025-02-12_16h56.00.585,3.2.  1.16 psyexp,2024.2.4,60.12050547891787,2025-02-12 16h56.09.052354 +0800,
4,j,196,4,24,j,1,0.5864554001018405,None,24,4,196,3,322.2907714000903,,,,,,322.2752437000163,322.2907714000903,322.7898926003836,322.79141590045765,323.28861860046163,323.28861860046163,323.8884678003378,j,1,0.5864554001018405,None,,,,,16,002,2025-02-12_16h56.00.585,3.2.  1.16 psyexp,2024.2.4,60.12050547891787,2025-02-12 16h56.09.052354 +0800,
9,f,197,5,24,f,1,0.4986904002726078,None,24,5,197,7,323.90402210038155,,,,,,323.8886305000633,323.90402210038155,324.40297160018235,324.40438180044293,324.90192240010947,324.90192240010947,325.40170230017975,f,1,0.4986904002726078,None,,,,,16,002,2025-02-12_16h56.00.585,3.2.  1.16 psyexp,2024.2.4,60.12050547891787,2025-02-12 16h56.09.052354 +0800,
7,f,198,6,24,f,1,0.594796699937433,None,24,6,198,5,325.4175544003956,,,,,,325.4018434002064,325.4175544003956,325.9005084000528,325.9018481001258,326.4155401000753,326.4155401000753,327.0155594004318,f,1,0.594796699937433,None,325.91637090034783,,,,16,002,2025-02-12_16h56.00.585,3.2.  1.16 psyexp,2024.2.4,60.12050547891787,2025-02-12 16h56.09.052354 +0800,
3,j,199,7,24,j,1,0.597087699919939,None,24,7,199,2,327.030675300397,,,,,,327.01572230039164,327.030675300397,327.51370270038024,327.515469300095,328.02863660035655,328.02863660035655,328.6291842004284,j,1,0.597087699919939,None,327.52953530009836,,,,16,002,2025-02-12_16h56.00.585,3.2.  1.16 psyexp,2024.2.4,60.12050547891787,2025-02-12 16h56.09.052354 +0800,
,,,,,,,,,,,,,,,,,,,,,,,,,,,,,,,328.6292802002281,328.64387200027704,329.6419363003224,16,002,2025-02-12_16h56.00.585,3.2.  1.16 psyexp,2024.2.4,60.12050547891787,2025-02-12 16h56.09.052354 +0800,
